year,month,day,hour,minute,second,HR,HR_conf,Activity,walk_stp,run_stp,scd,r,Acc_X,Acc_Y,Acc_Z,Unnamed: 11
2025,2,24,18,17,5,850,50,0,0,0,3,0,-913,-214,310,
2025,2,24,18,17,6,890,50,0,0,0,3,0,-916,-215,314,
2025,2,24,18,17,7,940,50,0,0,0,3,0,-920,-210,317,
2025,2,24,18,17,8,960,100,0,0,0,3,0,-923,-211,311,
2025,2,24,18,17,9,990,100,0,0,0,3,0,-909,-227,302,
2025,2,24,18,17,10,1030,100,0,0,0,3,0,-915,-213,312,
2025,2,24,18,17,11,1030,100,0,0,0,3,0,-923,-206,298,
2025,2,24,18,17,12,1020,100,0,0,0,3,0,-916,-215,312,
2025,2,24,18,17,13,1010,100,0,0,0,3,0,-915,-219,307,
2025,2,24,18,17,14,990,100,0,0,0,3,0,-873,-295,338,
2025,2,24,18,17,15,970,100,0,0,0,3,0,-878,-360,294,
2025,2,24,18,17,16,970,100,0,0,0,3,584,-887,-342,276,
2025,2,24,18,17,17,970,25,0,0,0,3,584,-890,-318,296,
2025,2,24,18,17,18,960,50,0,0,0,3,584,-901,-227,272,
2025,2,24,18,17,19,960,100,0,0,0,3,584,-897,-293,307,
2025,2,24,18,17,20,950,100,0,0,0,3,584,-912,-260,306,
2025,2,24,18,17,21,940,100,0,0,0,3,584,-906,-272,295,
2025,2,24,18,17,22,930,100,0,0,0,3,584,-906,-272,293,
2025,2,24,18,17,23,910,100,0,0,0,3,584,-913,-264,289,
2025,2,24,18,17,24,890,100,0,0,0,3,584,-914,-256,280,
2025,2,24,18,17,25,870,100,0,0,0,3,584,-915,-267,288,
2025,2,24,18,17,26,860,100,0,0,0,3,584,-912,-262,286,
2025,2,24,18,17,27,850,100,0,0,0,3,584,-911,-257,285,
2025,2,24,18,17,28,830,100,0,0,0,3,584,-909,-265,289,
2025,2,24,18,17,29,820,100,0,0,0,3,584,-909,-265,296,
2025,2,24,18,17,30,810,100,0,0,0,3,584,-158,-514,447,
2025,2,24,18,17,31,800,50,0,0,0,3,584,-341,-730,716,
2025,2,24,18,17,32,800,50,0,0,0,3,584,-652,-550,510,
2025,2,24,18,17,33,790,50,0,0,0,3,584,-801,-448,423,
2025,2,24,18,17,34,780,50,0,0,0,3,584,-759,-460,408,
2025,2,24,18,17,35,770,50,0,0,0,3,584,-915,-130,393,
2025,2,24,18,17,36,770,50,0,0,0,3,584,-866,-239,418,
2025,2,24,18,17,37,770,50,0,0,0,3,584,-856,-220,447,
2025,2,24,18,17,38,770,50,0,0,0,3,584,-874,-208,432,
2025,2,24,18,17,39,770,50,0,0,0,3,584,-873,-198,430,
2025,2,24,18,17,40,770,50,0,0,0,3,584,-873,-190,424,
2025,2,24,18,17,41,770,75,0,0,0,3,584,-875,-190,428,
2025,2,24,18,17,42,760,100,0,0,0,3,584,-877,-190,423,
2025,2,24,18,17,43,760,100,0,0,0,3,584,-864,-185,437,
2025,2,24,18,17,44,750,100,0,0,0,3,584,-969,-146,428,
2025,2,24,18,17,45,740,25,0,0,0,3,584,-890,-342,355,
2025,2,24,18,17,46,730,25,0,0,0,3,584,-865,-343,341,
2025,2,24,18,17,47,720,50,0,0,0,3,584,-868,-337,369,
2025,2,24,18,17,48,720,50,0,0,0,3,584,-853,-199,311,
2025,2,24,18,17,49,720,50,0,0,0,3,584,-853,-199,311,
2025,2,24,18,17,50,720,50,0,0,0,3,584,-926,-117,323,
2025,2,24,18,17,51,720,50,0,0,0,3,584,-941,-323,248,
2025,2,24,18,17,52,720,50,0,0,0,3,584,-951,-174,241,
2025,2,24,18,17,53,720,50,0,0,0,3,584,-1057,-185,396,
2025,2,24,18,17,54,720,50,0,0,0,3,584,-659,156,622,
2025,2,24,18,17,54,730,50,0,0,0,3,584,-659,156,622,
2025,2,24,18,17,55,730,50,0,0,0,3,584,-934,-334,235,
2025,2,24,18,17,56,730,50,1,0,0,3,584,-604,-335,555,
2025,2,24,18,17,57,730,50,1,0,0,3,584,-962,-289,283,
2025,2,24,18,17,58,730,50,1,0,0,3,584,-833,-125,348,
2025,2,24,18,17,59,730,50,1,0,0,3,584,-593,-135,712,
2025,2,24,18,18,0,730,75,1,0,0,3,584,-517,-95,749,
2025,2,24,18,18,1,740,75,1,0,0,3,584,-601,-126,784,
2025,2,24,18,18,2,740,75,1,0,0,3,584,-508,-32,693,
2025,2,24,18,18,3,740,75,1,0,0,3,584,-519,-176,909,
2025,2,24,18,18,4,750,75,1,0,0,3,584,-553,-187,829,
2025,2,24,18,18,5,750,75,1,0,0,3,584,-364,-167,741,
2025,2,24,18,18,6,750,50,0,0,0,3,584,-583,-18,595,
2025,2,24,18,18,7,750,50,0,0,0,3,584,-424,291,1316,
2025,2,24,18,18,8,750,50,0,0,0,3,584,-933,-357,495,
2025,2,24,18,18,9,740,50,0,0,0,3,584,-415,80,989,
2025,2,24,18,18,10,740,50,0,0,0,3,584,-463,-1,755,
2025,2,24,18,18,11,730,25,0,0,0,3,584,-244,190,632,
2025,2,24,18,18,12,730,25,0,0,0,3,584,-928,-306,381,
2025,2,24,18,18,13,730,50,2,0,0,3,584,-789,-233,275,
2025,2,24,18,18,14,730,75,2,2,0,3,584,-708,-170,247,
2025,2,24,18,18,15,730,75,2,4,0,3,584,-658,-164,283,
2025,2,24,18,18,16,720,75,2,6,0,3,584,-690,-203,332,
2025,2,24,18,18,17,730,75,2,8,0,3,584,-755,-284,292,
2025,2,24,18,18,18,730,75,2,9,0,3,584,-964,-277,468,
2025,2,24,18,18,19,740,75,2,11,0,3,584,-894,-358,495,
2025,2,24,18,18,20,740,75,2,13,0,3,584,-1095,-435,646,
2025,2,24,18,18,21,750,75,2,15,0,3,584,-1107,-326,570,
2025,2,24,18,18,22,750,75,2,17,0,3,584,-833,-202,578,
2025,2,24,18,18,23,750,75,2,19,0,3,584,-751,-188,481,
2025,2,24,18,18,24,770,75,2,21,0,3,584,-764,-66,422,
2025,2,24,18,18,25,790,50,2,23,0,3,584,-656,-60,366,
2025,2,24,18,18,26,810,50,2,25,0,3,584,-616,-50,345,
2025,2,24,18,18,27,820,25,2,27,0,3,584,-628,-75,347,
2025,2,24,18,18,28,820,50,2,29,0,3,584,-783,-114,402,
2025,2,24,18,18,29,830,50,2,31,0,3,584,-956,-47,447,
2025,2,24,18,18,30,830,50,2,32,0,3,584,-838,-124,426,
2025,2,24,18,18,31,830,50,2,34,0,3,584,-893,-212,557,
2025,2,24,18,18,32,830,50,2,36,0,3,584,-1179,-264,529,
2025,2,24,18,18,33,820,25,2,38,0,3,584,-1039,-249,443,
2025,2,24,18,18,34,810,25,2,40,0,3,584,-1049,-247,495,
2025,2,24,18,18,35,810,25,2,42,0,3,584,-884,-195,426,
2025,2,24,18,18,36,810,25,2,44,0,3,584,-883,-238,432,
2025,2,24,18,18,37,810,25,2,46,0,3,584,-691,-196,351,
2025,2,24,18,18,38,810,50,2,48,0,3,584,-668,-143,275,
2025,2,24,18,18,39,800,50,2,50,0,3,584,-624,-108,295,
2025,2,24,18,18,40,800,50,2,52,0,3,584,-824,-183,366,
2025,2,24,18,18,41,790,50,2,54,0,3,584,-954,-317,406,
2025,2,24,18,18,42,790,50,2,56,0,3,584,-838,-295,429,
2025,2,24,18,18,43,790,50,2,57,0,3,584,-862,-351,497,
2025,2,24,18,18,44,790,50,2,59,0,3,584,-1099,-372,564,
2025,2,24,18,18,45,790,50,2,61,0,3,584,-1342,-296,502,
2025,2,24,18,18,46,790,50,2,63,0,3,584,-964,-195,519,
2025,2,24,18,18,47,790,50,2,65,0,3,584,-737,-150,509,
2025,2,24,18,18,48,790,50,2,67,0,3,584,-662,-88,358,
2025,2,24,18,18,49,790,50,2,69,0,3,584,-576,-37,364,
2025,2,24,18,18,50,780,50,2,71,0,3,584,-891,-48,445,
2025,2,24,18,18,51,780,75,2,73,0,3,584,-808,-92,297,
2025,2,24,18,18,52,780,75,2,75,0,3,584,-976,-249,529,
2025,2,24,18,18,53,780,75,2,76,0,3,584,-1338,-280,295,
2025,2,24,18,18,54,780,75,2,78,0,3,584,-1048,-230,333,
2025,2,24,18,18,55,780,75,2,80,0,3,584,-996,-244,279,
2025,2,24,18,18,56,780,75,2,82,0,3,584,-719,-165,255,
2025,2,24,18,18,57,780,75,2,84,0,3,584,-675,-82,274,
2025,2,24,18,18,58,780,75,2,86,0,3,584,-715,-112,259,
2025,2,24,18,18,59,780,100,2,88,0,3,584,-922,-218,349,
2025,2,24,18,19,0,790,100,2,90,0,3,584,-937,-190,321,
2025,2,24,18,19,1,790,100,2,92,0,3,584,-1140,-332,412,
2025,2,24,18,19,2,790,100,2,94,0,3,584,-1203,-158,418,
2025,2,24,18,19,3,790,100,2,95,0,3,584,-905,-160,438,
2025,2,24,18,19,4,790,100,2,97,0,3,584,-782,-89,360,
2025,2,24,18,19,5,790,100,2,99,0,3,584,-695,-75,356,
2025,2,24,18,19,6,790,100,2,101,0,3,584,-585,-38,341,
2025,2,24,18,19,7,790,100,2,103,0,3,584,-761,-13,418,
2025,2,24,18,19,8,790,100,2,105,0,3,584,-1051,42,393,
2025,2,24,18,19,9,790,100,2,107,0,3,584,-928,-90,252,
2025,2,24,18,19,10,790,100,2,109,0,3,584,-1008,-184,459,
2025,2,24,18,19,11,790,100,2,111,0,3,584,-1236,-182,238,
2025,2,24,18,19,12,790,100,2,112,0,3,584,-1057,-202,176,
2025,2,24,18,19,13,780,100,2,114,0,3,584,-919,-203,173,
2025,2,24,18,19,14,780,100,2,116,0,3,584,-774,-152,217,
2025,2,24,18,19,15,780,100,2,118,0,3,584,-713,-99,189,
2025,2,24,18,19,16,790,100,2,120,0,3,584,-822,-148,231,
2025,2,24,18,19,17,790,100,2,122,0,3,584,-1082,-121,289,
2025,2,24,18,19,18,790,100,2,124,0,3,584,-1098,-200,288,
2025,2,24,18,19,19,790,100,2,126,0,3,584,-1307,-263,386,
2025,2,24,18,19,20,800,100,2,127,0,3,584,-1575,-211,248,
2025,2,24,18,19,21,810,100,2,129,0,3,584,-992,-122,322,
2025,2,24,18,19,22,810,100,2,131,0,3,584,-766,-127,353,
2025,2,24,18,19,23,810,100,2,133,0,3,584,-727,-87,308,
2025,2,24,18,19,24,800,100,2,135,0,3,584,-643,-78,359,
2025,2,24,18,19,25,800,100,2,137,0,3,584,-714,-12,327,
2025,2,24,18,19,26,800,75,2,139,0,3,584,-1061,-43,324,
2025,2,24,18,19,27,790,75,2,141,0,3,584,-975,-170,262,
2025,2,24,18,19,28,790,75,2,143,0,3,584,-1101,-181,473,
2025,2,24,18,19,29,780,75,2,144,0,3,584,-1369,-205,122,
2025,2,24,18,19,30,780,75,2,146,0,3,584,-1231,-196,81,
2025,2,24,18,19,31,780,75,2,148,0,3,584,-1044,-178,102,
2025,2,24,18,19,32,780,75,2,150,0,3,584,-933,-160,147,
2025,2,24,18,19,33,780,75,2,152,0,3,584,-782,-179,177,
2025,2,24,18,19,34,770,100,2,154,0,3,584,-671,-128,114,
2025,2,24,18,19,35,770,100,2,156,0,3,584,-677,-128,199,
2025,2,24,18,19,36,770,100,2,158,0,3,584,-944,-240,283,
2025,2,24,18,19,37,770,100,2,160,0,3,584,-1050,-225,262,
2025,2,24,18,19,38,780,100,2,162,0,3,584,-1044,-397,350,
2025,2,24,18,19,39,780,100,2,164,0,3,584,-956,-264,256,
2025,2,24,18,19,40,780,100,2,165,0,3,584,-1282,-254,470,
2025,2,24,18,19,41,780,100,2,167,0,3,584,-1200,-152,387,
2025,2,24,18,19,42,780,100,2,169,0,3,584,-815,-87,419,
2025,2,24,18,19,43,780,100,2,171,0,3,584,-702,-92,292,
2025,2,24,18,19,44,790,100,2,173,0,3,584,-650,-11,306,
2025,2,24,18,19,45,790,100,2,175,0,3,584,-802,157,287,
2025,2,24,18,19,46,790,100,2,177,0,3,584,-875,-203,362,
2025,2,24,18,19,47,790,100,2,179,0,3,584,-1288,-228,215,
2025,2,24,18,19,48,780,100,2,180,0,3,584,-1144,-310,240,
2025,2,24,18,19,49,780,100,2,182,0,3,584,-898,-188,64,
2025,2,24,18,19,50,780,100,2,184,0,3,584,-728,-120,148,
2025,2,24,18,19,51,780,100,2,186,0,3,584,-779,-207,183,
2025,2,24,18,19,52,780,100,2,188,0,3,584,-798,-187,198,
2025,2,24,18,19,53,770,100,2,190,0,3,584,-1031,-185,312,
2025,2,24,18,19,54,770,100,2,192,0,3,584,-1259,-270,346,
2025,2,24,18,19,55,770,100,2,193,0,3,584,-1547,-209,383,
2025,2,24,18,19,56,770,100,2,195,0,3,584,-1161,-136,317,
2025,2,24,18,19,57,760,100,2,197,0,3,584,-820,-110,352,
2025,2,24,18,19,58,760,100,2,199,0,3,584,-702,-82,331,
2025,2,24,18,19,59,760,100,2,201,0,3,584,-642,-164,362,
2025,2,24,18,20,0,760,100,2,203,0,3,584,-794,-2,400,
2025,2,24,18,20,1,750,100,2,205,0,3,584,-1171,-125,213,
2025,2,24,18,20,2,750,100,2,207,0,3,584,-914,-207,436,
2025,2,24,18,20,3,750,100,2,209,0,3,584,-1314,-245,104,
2025,2,24,18,20,4,750,100,2,210,0,3,584,-926,-145,44,
2025,2,24,18,20,5,750,100,2,212,0,3,584,-688,-174,47,
2025,2,24,18,20,6,750,100,2,214,0,3,584,-759,-217,43,
2025,2,24,18,20,7,750,100,2,216,0,3,584,-755,-251,21,
2025,2,24,18,20,8,750,100,2,218,0,3,584,-928,-62,203,
2025,2,24,18,20,9,760,100,2,220,0,3,584,-1191,-215,238,
2025,2,24,18,20,10,760,100,2,222,0,3,584,-985,-222,265,
2025,2,24,18,20,11,760,100,2,223,0,3,584,-1185,-171,547,
2025,2,24,18,20,12,760,100,2,225,0,3,584,-1083,-155,324,
2025,2,24,18,20,13,760,100,2,227,0,3,584,-883,-140,438,
2025,2,24,18,20,14,760,100,2,229,0,3,584,-728,-70,294,
2025,2,24,18,20,15,760,100,2,231,0,3,584,-607,-80,224,
2025,2,24,18,20,16,760,100,2,233,0,3,584,-693,-121,325,
2025,2,24,18,20,17,760,100,2,235,0,3,584,-903,-63,273,
2025,2,24,18,20,18,760,100,2,237,0,3,584,-972,-111,248,
2025,2,24,18,20,19,760,100,2,239,0,3,584,-1190,-175,448,
2025,2,24,18,20,20,760,100,2,240,0,3,584,-1035,-115,145,
2025,2,24,18,20,21,760,100,2,242,0,3,584,-908,-157,80,
2025,2,24,18,20,22,760,100,2,244,0,3,584,-687,-145,90,
2025,2,24,18,20,23,760,100,2,246,0,3,584,-776,-124,164,
2025,2,24,18,20,24,760,100,2,248,0,3,584,-861,-205,120,
2025,2,24,18,20,25,760,100,2,250,0,3,584,-1360,-266,284,
2025,2,24,18,20,26,760,100,2,252,0,3,584,-1291,-263,424,
2025,2,24,18,20,27,760,100,2,253,0,3,584,-1333,-170,236,
2025,2,24,18,20,28,770,100,2,255,0,3,584,-910,-72,365,
2025,2,24,18,20,29,770,100,2,257,0,3,584,-748,-179,370,
2025,2,24,18,20,30,770,100,2,259,0,3,584,-718,-52,289,
2025,2,24,18,20,31,770,100,2,261,0,3,584,-650,-135,302,
2025,2,24,18,20,32,780,100,2,263,0,3,584,-584,-123,316,
2025,2,24,18,20,33,780,100,2,265,0,3,584,-547,-100,258,
2025,2,24,18,20,34,790,100,2,267,0,3,584,-515,-43,377,
2025,2,24,18,20,34,790,100,2,268,0,3,584,-515,-43,377,
2025,2,24,18,20,35,800,100,2,270,0,3,584,-601,0,227,
2025,2,24,18,20,36,800,100,2,272,0,3,584,-755,-106,301,
2025,2,24,18,20,37,810,100,2,274,0,3,584,-507,50,265,
2025,2,24,18,20,38,810,100,2,276,0,3,584,-611,-60,344,
2025,2,24,18,20,39,810,100,2,278,0,3,584,-669,-89,342,
2025,2,24,18,20,40,820,100,2,280,0,3,584,-613,-19,337,
2025,2,24,18,20,41,820,100,2,282,0,3,584,-612,-25,342,
2025,2,24,18,20,42,820,100,2,284,0,3,584,-766,-30,262,
2025,2,24,18,20,43,820,100,2,286,0,3,584,-753,16,393,
2025,2,24,18,20,44,820,100,2,288,0,3,584,-661,-32,303,
2025,2,24,18,20,45,820,100,2,290,0,3,584,-553,-29,234,
2025,2,24,18,20,46,820,100,2,292,0,3,584,-631,-42,333,
2025,2,24,18,20,47,830,100,2,294,0,3,584,-808,21,319,
2025,2,24,18,20,48,820,100,2,296,0,3,584,-936,79,413,
2025,2,24,18,20,49,820,100,2,298,0,3,584,-1002,-66,295,
2025,2,24,18,20,50,820,100,2,300,0,3,584,-998,-176,375,
2025,2,24,18,20,51,830,100,2,302,0,3,584,-1002,-69,311,
2025,2,24,18,20,52,840,100,2,304,0,3,584,-1053,-138,345,
2025,2,24,18,20,53,840,100,2,306,0,3,584,-1108,-117,396,
2025,2,24,18,20,54,850,100,2,308,0,3,584,-1237,-158,314,
2025,2,24,18,20,55,860,100,2,310,0,3,584,-1209,-151,325,
2025,2,24,18,20,56,870,100,2,312,0,3,584,-1117,17,342,
2025,2,24,18,20,57,880,75,2,314,0,3,584,-1005,-45,323,
2025,2,24,18,20,58,900,75,2,316,0,3,584,-671,-27,325,
2025,2,24,18,20,59,900,50,2,318,0,3,584,-622,-93,360,
2025,2,24,18,21,0,910,50,2,320,0,3,584,-567,-82,356,
2025,2,24,18,21,1,910,50,2,322,0,3,584,-633,-163,382,
2025,2,24,18,21,2,910,50,2,325,0,3,584,-639,-102,335,
2025,2,24,18,21,3,920,75,2,327,0,3,584,-650,-162,336,
2025,2,24,18,21,4,920,75,2,329,0,3,584,-695,-72,338,
2025,2,24,18,21,5,930,75,2,331,0,3,584,-746,-73,360,
2025,2,24,18,21,6,940,50,2,333,0,3,584,-781,-19,341,
2025,2,24,18,21,7,940,75,2,335,0,3,584,-896,-62,404,
2025,2,24,18,21,8,940,75,2,337,0,3,584,-868,-81,338,
2025,2,24,18,21,9,940,75,2,339,0,3,584,-865,-58,327,
2025,2,24,18,21,10,940,75,2,340,0,3,584,-643,14,367,
2025,2,24,18,21,11,940,75,2,342,0,3,584,-848,-79,376,
2025,2,24,18,21,12,940,75,2,344,0,3,584,-900,-107,405,
2025,2,24,18,21,13,930,75,2,346,0,3,584,-996,-19,348,
2025,2,24,18,21,14,920,75,2,348,0,3,584,-962,-91,294,
2025,2,24,18,21,15,920,75,2,350,0,3,584,-981,-69,385,
2025,2,24,18,21,16,910,75,2,352,0,3,584,-1117,-89,366,
2025,2,24,18,21,17,900,75,2,354,0,3,584,-789,-95,396,
2025,2,24,18,21,18,900,50,2,356,0,3,584,-832,-63,395,
2025,2,24,18,21,19,890,50,2,358,0,3,584,-999,31,312,
2025,2,24,18,21,20,890,50,2,360,0,3,584,-1070,-95,319,
2025,2,24,18,21,21,890,75,2,363,0,3,584,-1135,-193,291,
2025,2,24,18,21,22,880,75,2,365,0,3,584,-1029,-106,270,
2025,2,24,18,21,23,890,75,2,366,0,3,584,-1042,-74,269,
2025,2,24,18,21,24,900,50,2,368,0,3,584,-1147,-131,304,
2025,2,24,18,21,25,900,50,2,370,0,3,584,-1120,-154,353,
2025,2,24,18,21,26,910,50,2,372,0,3,584,-1214,-125,287,
2025,2,24,18,21,27,910,50,2,374,0,3,584,-1041,-135,322,
2025,2,24,18,21,28,910,50,2,376,0,3,584,-1125,-205,327,
2025,2,24,18,21,29,900,50,2,378,0,3,584,-1243,-200,293,
2025,2,24,18,21,30,900,25,2,380,0,3,584,-1120,-244,374,
2025,2,24,18,21,31,900,25,2,382,0,3,584,-932,-251,340,
2025,2,24,18,21,32,910,25,2,384,0,3,584,-1145,-220,319,
2025,2,24,18,21,33,920,25,2,386,0,3,584,-949,-191,572,
2025,2,24,18,21,34,920,25,2,388,0,3,584,-1464,-232,348,
2025,2,24,18,21,35,920,25,2,390,0,3,584,-1425,-255,92,
2025,2,24,18,21,36,910,25,2,392,0,3,584,-1227,-197,235,
2025,2,24,18,21,37,900,25,2,394,0,3,584,-1293,-282,163,
2025,2,24,18,21,38,890,0,2,396,0,3,584,-1262,-203,162,
2025,2,24,18,21,39,890,0,2,398,0,3,584,-1413,-141,85,
2025,2,24,18,21,40,890,0,2,400,0,3,584,-1319,-194,84,
2025,2,24,18,21,41,890,0,2,402,0,3,584,-1346,-203,165,
2025,2,24,18,21,42,890,25,2,404,0,3,584,-1138,-203,245,
2025,2,24,18,21,43,890,25,2,406,0,3,584,-1127,-228,225,
2025,2,24,18,21,44,890,25,2,408,0,3,584,-1079,-167,258,
2025,2,24,18,21,45,900,25,2,410,0,3,584,-1125,-197,248,
2025,2,24,18,21,46,900,25,2,412,0,3,584,-1128,-211,185,
2025,2,24,18,21,47,890,25,2,414,0,3,584,-971,-196,157,
2025,2,24,18,21,48,890,25,2,416,0,3,584,-1005,-234,132,
2025,2,24,18,21,49,880,25,2,418,0,3,584,-1093,-155,163,
2025,2,24,18,21,50,880,25,2,420,0,3,584,-1060,-132,83,
2025,2,24,18,21,51,890,25,2,422,0,3,584,-1065,-175,145,
2025,2,24,18,21,52,900,25,2,424,0,3,584,-1126,-203,106,
2025,2,24,18,21,53,900,25,2,426,0,3,584,-976,-185,131,
2025,2,24,18,21,54,910,25,2,428,0,3,584,-912,-176,119,
2025,2,24,18,21,55,920,25,2,430,0,3,584,-852,-193,255,
2025,2,24,18,21,56,920,25,2,432,0,3,584,-714,-150,203,
2025,2,24,18,21,57,920,25,2,434,0,3,584,-665,-118,120,
2025,2,24,18,21,58,920,25,2,436,0,3,584,-745,-213,87,
2025,2,24,18,21,59,920,25,2,438,0,3,584,-685,-160,133,
2025,2,24,18,22,0,930,25,2,440,0,3,584,-676,-128,94,
2025,2,24,18,22,1,930,25,2,442,0,3,584,-592,-77,129,
2025,2,24,18,22,2,930,25,2,444,0,3,584,-648,-71,203,
2025,2,24,18,22,3,930,25,2,446,0,3,584,-644,-145,188,
2025,2,24,18,22,4,920,25,2,448,0,3,584,-657,-5,152,
2025,2,24,18,22,5,920,25,2,450,0,3,584,-569,-92,243,
2025,2,24,18,22,6,920,25,2,452,0,3,584,-556,-97,179,
2025,2,24,18,22,7,920,50,2,454,0,3,584,-569,-79,162,
2025,2,24,18,22,8,910,50,2,456,0,3,584,-631,-112,160,
2025,2,24,18,22,9,910,50,2,458,0,3,584,-533,-97,166,
2025,2,24,18,22,10,900,50,2,460,0,3,584,-563,-122,147,
2025,2,24,18,22,11,900,50,2,462,0,3,584,-627,-48,142,
2025,2,24,18,22,12,890,50,2,464,0,3,584,-673,-163,213,
2025,2,24,18,22,13,890,50,2,466,0,3,584,-642,-82,209,
2025,2,24,18,22,14,890,50,2,468,0,3,584,-749,-115,273,
2025,2,24,18,22,15,890,50,2,470,0,3,584,-802,-191,229,
2025,2,24,18,22,16,880,50,2,472,0,3,584,-849,-152,239,
2025,2,24,18,22,17,880,50,2,474,0,3,584,-979,-121,357,
2025,2,24,18,22,18,870,50,2,476,0,3,584,-956,-197,273,
2025,2,24,18,22,19,870,50,2,478,0,3,584,-1020,-220,318,
2025,2,24,18,22,20,870,50,2,480,0,3,584,-1016,-147,351,
2025,2,24,18,22,21,860,50,2,482,0,3,584,-1150,-278,399,
2025,2,24,18,22,22,860,50,2,484,0,3,584,-1168,-379,256,
2025,2,24,18,22,23,850,50,2,486,0,3,584,-1151,-292,453,
2025,2,24,18,22,24,850,50,2,487,0,3,584,-1173,-362,316,
2025,2,24,18,22,25,850,75,2,489,0,3,584,-1170,-232,488,
2025,2,24,18,22,26,850,75,2,491,0,3,584,-1128,-233,344,
2025,2,24,18,22,27,840,75,2,493,0,3,584,-1390,-291,330,
2025,2,24,18,22,28,840,75,2,495,0,3,584,-1307,-234,375,
2025,2,24,18,22,29,840,75,2,497,0,3,584,-1324,-327,421,
2025,2,24,18,22,30,840,75,2,499,0,3,584,-1263,-387,413,
2025,2,24,18,22,31,840,75,2,501,0,3,584,-1203,-292,476,
2025,2,24,18,22,32,840,75,2,503,0,3,584,-1133,-355,445,
2025,2,24,18,22,33,840,100,2,505,0,3,584,-1326,-321,407,
2025,2,24,18,22,34,840,100,2,507,0,3,584,-1298,-362,453,
2025,2,24,18,22,35,840,100,2,509,0,3,584,-1196,-233,582,
2025,2,24,18,22,36,840,100,2,511,0,3,584,-1199,-277,580,
2025,2,24,18,22,37,840,100,2,513,0,3,584,-1326,-206,559,
2025,2,24,18,22,38,840,100,2,515,0,3,584,-1322,-216,485,
2025,2,24,18,22,39,840,100,2,517,0,3,584,-1289,-186,594,
2025,2,24,18,22,40,840,100,2,519,0,3,584,-1386,-347,508,
2025,2,24,18,22,41,840,100,2,521,0,3,584,-1174,-284,506,
2025,2,24,18,22,42,840,100,2,523,0,3,584,-1106,-190,568,
2025,2,24,18,22,43,840,100,2,525,0,3,584,-1103,-271,617,
2025,2,24,18,22,44,840,100,2,527,0,3,584,-1023,-269,664,
2025,2,24,18,22,45,840,100,2,529,0,3,584,-966,-246,629,
2025,2,24,18,22,46,840,100,2,531,0,3,584,-1004,-254,547,
2025,2,24,18,22,47,840,100,2,533,0,3,584,-863,-174,394,
2025,2,24,18,22,48,840,100,2,535,0,3,584,-808,-241,541,
2025,2,24,18,22,49,840,100,2,537,0,3,584,-825,-242,504,
2025,2,24,18,22,50,840,100,2,539,0,3,584,-763,-148,470,
2025,2,24,18,22,51,840,100,2,541,0,3,584,-793,-149,453,
2025,2,24,18,22,52,840,100,2,543,0,3,584,-751,-177,455,
2025,2,24,18,22,53,840,100,2,545,0,3,584,-595,-112,301,
2025,2,24,18,22,54,850,100,2,547,0,3,584,-660,11,434,
2025,2,24,18,22,55,850,100,2,549,0,3,584,-546,-40,282,
2025,2,24,18,22,56,850,100,2,551,0,3,584,-547,-77,337,
2025,2,24,18,22,57,860,100,2,553,0,3,584,-453,-63,321,
2025,2,24,18,22,58,860,100,2,555,0,3,584,-530,-70,306,
2025,2,24,18,22,59,870,100,2,557,0,3,584,-491,-49,338,
2025,2,24,18,23,0,870,100,2,559,0,3,584,-538,-24,321,
2025,2,24,18,23,1,870,100,2,561,0,3,584,-697,-67,269,
2025,2,24,18,23,2,880,100,2,563,0,3,584,-910,-142,318,
2025,2,24,18,23,3,880,100,2,565,0,3,584,-981,-206,133,
2025,2,24,18,23,4,890,100,2,567,0,3,584,-958,-202,132,
2025,2,24,18,23,5,900,100,2,569,0,3,584,-918,-44,289,
2025,2,24,18,23,6,910,100,2,570,0,3,584,-852,-194,279,
2025,2,24,18,23,7,910,100,2,572,0,3,584,-916,-151,371,
2025,2,24,18,23,8,920,100,2,574,0,3,584,-774,-274,562,
2025,2,24,18,23,9,930,75,2,576,0,3,584,-791,-185,556,
2025,2,24,18,23,10,930,25,0,576,0,3,584,-877,-223,423,
2025,2,24,18,23,11,930,25,0,576,0,3,584,-905,-193,398,
2025,2,24,18,23,12,940,25,0,576,0,3,584,-859,-133,355,
2025,2,24,18,23,13,940,25,0,576,0,3,584,-849,-238,463,
2025,2,24,18,23,14,940,25,0,576,0,3,584,-850,-253,437,
2025,2,24,18,23,15,950,50,0,576,0,3,584,-861,-247,442,
2025,2,24,18,23,16,940,75,0,576,0,3,584,-861,-196,439,
2025,2,24,18,23,17,940,100,0,576,0,3,584,-841,-179,420,
2025,2,24,18,23,18,940,75,0,576,0,3,584,-872,-286,372,
2025,2,24,18,23,19,930,75,0,576,0,3,584,-887,-254,394,
2025,2,24,18,23,20,930,100,0,576,0,3,584,-896,-256,364,
2025,2,24,18,23,21,930,100,0,576,0,3,584,-889,-244,372,
2025,2,24,18,23,22,920,100,0,576,0,3,584,-891,-242,382,
2025,2,24,18,23,23,910,100,0,576,0,3,584,-883,-232,379,
2025,2,24,18,23,24,900,100,0,576,0,3,584,-890,-271,362,
2025,2,24,18,23,25,890,100,0,576,0,3,584,-887,-301,332,
2025,2,24,18,23,26,870,100,0,576,0,3,584,-889,-298,321,
2025,2,24,18,23,27,860,100,0,576,0,3,584,-885,-298,330,
2025,2,24,18,23,28,850,100,0,576,0,3,584,-892,-295,333,
2025,2,24,18,23,29,840,100,0,576,0,3,584,-884,-296,330,
2025,2,24,18,23,30,840,100,0,576,0,3,584,-898,-296,326,
2025,2,24,18,23,31,830,100,0,576,0,3,584,-882,-278,325,
2025,2,24,18,23,32,830,100,0,576,0,3,584,-866,-273,335,
2025,2,24,18,23,33,820,100,0,576,0,3,584,-892,-303,376,
2025,2,24,18,23,34,810,100,0,576,0,3,584,-898,-276,345,
2025,2,24,18,23,35,800,100,0,576,0,3,584,-903,-220,354,
2025,2,24,18,23,36,800,100,0,576,0,3,543,-918,-233,349,
2025,2,24,18,23,37,790,100,0,576,0,3,567,-904,-270,318,
2025,2,24,18,23,38,790,100,0,576,0,3,575,-890,-274,350,
2025,2,24,18,23,39,780,100,0,576,0,3,578,-891,-268,339,
2025,2,24,18,23,40,780,100,0,576,0,3,581,-896,-266,349,
2025,2,24,18,23,41,770,100,0,576,0,3,581,-863,-230,362,
2025,2,24,18,23,42,770,100,0,576,0,3,581,-892,-236,395,
2025,2,24,18,23,43,760,100,0,576,0,3,581,-885,-244,350,
2025,2,24,18,23,44,760,75,0,576,0,3,581,-876,-291,384,
2025,2,24,18,23,45,760,75,0,576,0,3,581,-884,-281,363,
2025,2,24,18,23,46,750,75,0,576,0,3,581,-888,-294,331,
2025,2,24,18,23,47,750,100,0,576,0,3,581,-895,-299,328,
2025,2,24,18,23,48,740,100,0,576,0,3,581,-891,-315,333,
2025,2,24,18,23,49,740,100,0,576,0,3,581,-927,-230,397,
2025,2,24,18,23,50,740,100,0,576,0,3,581,-885,-133,371,
2025,2,24,18,23,51,740,100,0,576,0,3,581,-914,-245,334,
2025,2,24,18,23,52,750,100,0,576,0,3,581,-905,-211,359,
2025,2,24,18,23,53,750,100,0,576,0,3,581,-910,-210,343,
2025,2,24,18,23,54,750,100,0,576,0,3,581,-901,-231,349,
2025,2,24,18,23,55,750,100,0,576,0,3,581,-912,-219,340,
2025,2,24,18,23,56,760,100,0,576,0,3,581,-909,-208,336,
2025,2,24,18,23,57,760,100,0,576,0,3,581,-910,-225,333,
2025,2,24,18,23,58,770,100,0,576,0,3,581,-913,-227,335,
2025,2,24,18,23,59,770,100,0,576,0,3,581,-928,-203,293,
2025,2,24,18,24,0,770,100,0,576,0,3,581,-893,-56,356,
2025,2,24,18,24,1,780,100,0,576,0,3,581,-836,-317,368,
2025,2,24,18,24,2,780,100,0,576,0,3,581,-732,-64,370,
2025,2,24,18,24,3,790,100,0,576,0,3,581,-793,-323,256,
2025,2,24,18,24,4,800,75,0,576,0,3,581,-774,-258,221,
2025,2,24,18,24,5,800,100,2,576,0,3,581,-1006,-413,216,
2025,2,24,18,24,6,810,100,2,578,0,3,581,-1105,-292,285,
2025,2,24,18,24,7,810,100,2,580,0,3,581,-1246,-984,486,
2025,2,24,18,24,8,820,100,2,582,0,3,581,-563,-78,241,
2025,2,24,18,24,9,820,100,2,583,0,3,581,-712,-86,186,
2025,2,24,18,24,10,830,100,2,585,0,3,581,-745,-193,578,
2025,2,24,18,24,11,830,100,2,587,0,3,581,-519,-8,465,
2025,2,24,18,24,12,840,100,2,589,0,3,581,-653,-145,412,
2025,2,24,18,24,13,840,100,2,592,0,3,581,-1502,-288,975,
2025,2,24,18,24,14,840,100,2,594,0,3,581,-309,-24,332,
2025,2,24,18,24,15,840,100,1,596,0,3,581,-1356,-468,1304,
2025,2,24,18,24,16,840,100,3,596,3,3,581,-240,155,117,
2025,2,24,18,24,17,850,100,3,596,5,3,581,-779,-39,659,
2025,2,24,18,24,18,850,100,3,596,8,3,581,-411,-428,838,
2025,2,24,18,24,19,850,100,3,596,11,3,581,-460,-125,362,
2025,2,24,18,24,20,850,100,3,596,13,3,581,-1301,-821,1556,
2025,2,24,18,24,21,850,100,3,596,16,3,581,71,-61,332,
2025,2,24,18,24,22,860,100,3,596,18,3,581,-582,-691,880,
2025,2,24,18,24,23,850,100,3,596,21,3,581,-472,-81,444,
2025,2,24,18,24,24,860,100,3,596,24,3,581,-132,-76,460,
2025,2,24,18,24,25,890,0,3,596,26,3,581,-929,-956,1571,
2025,2,24,18,24,26,920,0,3,596,29,3,581,-273,18,372,
2025,2,24,18,24,27,940,0,3,596,31,3,581,-691,-510,1112,
2025,2,24,18,24,28,960,0,3,596,34,3,581,-198,-326,778,
2025,2,24,18,24,29,980,0,3,596,37,3,581,-275,-337,769,
2025,2,24,18,24,30,990,0,3,596,39,3,581,-635,-536,846,
2025,2,24,18,24,31,1010,0,3,596,42,3,581,48,-113,355,
2025,2,24,18,24,32,1020,0,3,596,44,3,581,-612,-914,1381,
2025,2,24,18,24,33,1040,0,3,596,47,3,581,-198,-50,447,
2025,2,24,18,24,34,1060,0,3,596,50,3,581,-144,-265,728,
2025,2,24,18,24,35,1070,0,3,596,52,3,581,-481,-639,1124,
2025,2,24,18,24,36,1090,0,3,596,55,3,581,-185,4,393,
2025,2,24,18,24,37,1100,0,3,596,57,3,581,-705,-772,1398,
2025,2,24,18,24,38,1120,0,2,598,58,3,581,-35,-178,559,
2025,2,24,18,24,39,1130,0,2,600,58,3,581,-316,-466,892,
2025,2,24,18,24,40,1150,0,2,603,58,3,581,-450,-374,883,
2025,2,24,18,24,41,1170,0,2,606,58,3,581,-111,-86,616,
2025,2,24,18,24,42,1180,0,2,608,58,3,581,-743,-874,1333,
2025,2,24,18,24,43,1200,0,2,611,58,3,581,-296,-59,605,
2025,2,24,18,24,44,1210,0,2,614,58,3,581,-146,-252,818,
2025,2,24,18,24,45,1220,0,2,616,58,3,581,-194,-590,923,
2025,2,24,18,24,46,1240,0,2,618,59,3,581,-164,-19,489,
2025,2,24,18,24,47,1250,0,2,620,59,3,581,-737,-1028,1667,
2025,2,24,18,24,48,1250,0,2,623,59,3,581,-67,-169,627,
2025,2,24,18,24,49,1250,0,2,625,59,3,581,-292,-315,841,
2025,2,24,18,24,50,1260,0,2,628,59,3,581,-488,-301,837,
2025,2,24,18,24,51,1260,0,2,631,59,3,581,-122,-44,538,
2025,2,24,18,24,52,1270,0,2,633,59,3,581,-644,-577,1259,
2025,2,24,18,24,53,1270,0,2,636,59,3,581,-216,56,845,
2025,2,24,18,24,54,1280,0,2,639,59,3,581,-183,-117,567,
2025,2,24,18,24,55,1290,0,2,641,59,3,581,-463,-696,1446,
2025,2,24,18,24,56,1300,0,2,644,59,3,581,-211,46,438,
2025,2,24,18,24,57,1310,0,2,646,59,3,581,-330,-171,947,
2025,2,24,18,24,58,1320,0,2,649,59,3,581,-240,-504,972,
2025,2,24,18,24,59,1330,0,2,652,59,3,581,-126,-33,503,
2025,2,24,18,25,0,1340,0,2,654,59,3,581,-750,-606,1483,
2025,2,24,18,25,1,1360,0,2,657,59,3,581,-46,-217,895,
2025,2,24,18,25,2,1370,0,2,660,59,3,581,-170,-205,829,
2025,2,24,18,25,3,1380,0,2,662,59,3,581,-251,-376,1459,
2025,2,24,18,25,4,1400,0,2,665,59,3,581,71,57,530,
2025,2,24,18,25,5,1420,0,2,667,59,3,581,-333,-402,984,
2025,2,24,18,25,6,1430,0,2,670,59,3,581,-347,-251,890,
2025,2,24,18,25,7,1450,0,2,673,59,3,581,-43,-111,587,
2025,2,24,18,25,8,1460,0,2,675,59,3,581,-482,-421,1179,
2025,2,24,18,25,9,1480,0,2,678,59,3,581,-462,-135,808,
2025,2,24,18,25,10,1490,0,2,681,59,3,581,-73,-36,728,
2025,2,24,18,25,11,1500,0,2,683,59,3,581,-827,-530,1466,
2025,2,24,18,25,12,1520,0,2,686,59,3,581,-341,-47,660,
2025,2,24,18,25,13,1530,0,2,688,59,3,581,-182,-128,811,
2025,2,24,18,25,14,1530,25,2,691,59,3,581,-452,-395,1406,
2025,2,24,18,25,15,1530,25,2,694,59,3,581,-181,-37,457,
2025,2,24,18,25,16,1530,25,2,696,59,3,581,-258,-165,918,
2025,2,24,18,25,17,1530,25,2,699,59,3,581,-269,-464,1121,
2025,2,24,18,25,18,1530,25,2,702,59,3,581,-282,63,533,
2025,2,24,18,25,19,1520,25,2,704,59,3,581,-563,-267,1164,
2025,2,24,18,25,20,1510,25,2,707,59,3,581,-138,-217,843,
2025,2,24,18,25,21,1500,25,2,710,59,3,581,-155,-73,543,
2025,2,24,18,25,22,1480,0,2,712,59,3,581,-706,-425,1447,
2025,2,24,18,25,23,1470,0,2,715,59,3,581,-24,-55,570,
2025,2,24,18,25,24,1470,0,2,718,59,3,581,-99,-89,748,
2025,2,24,18,25,25,1460,0,2,720,59,3,581,-185,-184,1505,
2025,2,24,18,25,26,1450,0,2,723,59,3,581,155,-92,509,
2025,2,24,18,25,27,1450,0,2,725,59,3,581,-115,-422,1069,
2025,2,24,18,25,28,1440,0,2,728,59,3,581,-299,-302,911,
2025,2,24,18,25,29,1430,0,2,731,59,3,581,87,30,380,
2025,2,24,18,25,30,1430,0,2,733,59,3,581,-307,-295,1041,
2025,2,24,18,25,31,1420,0,2,736,59,3,581,-394,-172,805,
2025,2,24,18,25,32,1410,0,2,739,59,3,581,22,61,583,
2025,2,24,18,25,33,1400,0,2,741,59,3,581,-494,-738,1477,
2025,2,24,18,25,34,1380,0,2,744,59,3,581,-275,-203,547,
2025,2,24,18,25,34,1370,0,2,747,59,3,581,-275,-203,547,
2025,2,24,18,25,35,1360,0,2,749,59,3,581,-171,-543,1135,
2025,2,24,18,25,36,1350,0,2,752,59,3,581,-106,108,456,
2025,2,24,18,25,37,1340,0,2,754,59,3,581,-411,-406,1536,
2025,2,24,18,25,38,1320,0,2,757,59,3,581,117,-115,748,
2025,2,24,18,25,39,1310,0,2,760,59,3,581,-129,-277,934,
2025,2,24,18,25,40,1300,0,2,762,59,3,581,-205,-391,1110,
2025,2,24,18,25,41,1300,0,2,765,59,3,581,26,41,640,
2025,2,24,18,25,42,1290,0,2,767,59,3,581,-527,-629,1547,
2025,2,24,18,25,43,1280,0,2,770,59,3,581,-276,21,638,
2025,2,24,18,25,44,1270,0,2,773,59,3,581,-145,-137,974,
2025,2,24,18,25,45,1260,0,2,775,59,3,581,54,-243,851,
2025,2,24,18,25,46,1250,0,2,778,59,3,581,-165,4,601,
2025,2,24,18,25,47,1240,0,2,780,59,3,581,-222,-312,1438,
2025,2,24,18,25,48,1230,25,2,783,59,3,581,-47,-4,612,
2025,2,24,18,25,49,1230,25,2,785,59,3,581,-485,-317,1408,
2025,2,24,18,25,50,1230,25,2,788,59,3,581,-361,71,760,
2025,2,24,18,25,51,1230,25,2,791,59,3,581,-283,-46,767,
2025,2,24,18,25,52,1230,25,2,793,59,3,581,-478,-241,1415,
2025,2,24,18,25,53,1230,25,2,796,59,3,581,-250,5,546,
2025,2,24,18,25,54,1230,25,2,798,59,3,581,-568,-490,1703,
2025,2,24,18,25,55,1220,25,2,801,59,3,581,105,213,482,
2025,2,24,18,25,56,1210,25,2,804,59,3,581,-580,-465,1391,
2025,2,24,18,25,56,1200,25,2,806,59,3,581,-434,95,979,
2025,2,24,18,25,57,1200,25,2,809,59,3,581,-11,76,704,
2025,2,24,18,25,58,1190,25,2,811,59,3,581,-380,-528,1567,
2025,2,24,18,25,59,1190,25,2,814,59,3,581,-266,65,565,
2025,2,24,18,26,0,1180,25,2,817,59,3,581,-120,-152,785,
2025,2,24,18,26,1,1180,25,2,819,59,3,581,-246,-395,1278,
2025,2,24,18,26,2,1180,25,2,822,59,3,581,-180,201,511,
2025,2,24,18,26,3,1180,50,2,824,59,3,581,-372,-363,1696,
2025,2,24,18,26,4,1190,50,2,827,59,3,581,45,-112,693,
2025,2,24,18,26,5,1180,50,2,830,59,3,581,-130,-315,698,
2025,2,24,18,26,6,1190,50,2,832,59,3,581,-377,-58,1362,
2025,2,24,18,26,7,1190,50,2,835,59,3,581,-77,92,482,
2025,2,24,18,26,8,1180,50,2,837,59,3,581,-492,-734,1705,
2025,2,24,18,26,9,1180,50,2,840,59,3,581,-309,114,477,
2025,2,24,18,26,10,1170,50,2,843,59,3,581,-72,-55,981,
2025,2,24,18,26,11,1170,50,2,845,59,3,581,-48,-104,1026,
2025,2,24,18,26,12,1170,50,2,848,59,3,581,-257,-153,935,
2025,2,24,18,26,13,1170,75,2,850,59,3,581,-554,95,1147,
2025,2,24,18,26,14,1160,75,2,853,59,3,581,73,105,497,
2025,2,24,18,26,15,1160,75,2,855,59,3,581,-165,-230,1491,
2025,2,24,18,26,16,1170,75,2,858,59,3,581,-229,189,498,
2025,2,24,18,26,17,1170,75,2,861,59,3,581,-353,-149,1189,
2025,2,24,18,26,18,1180,50,2,863,59,3,581,-11,29,786,
2025,2,24,18,26,19,1190,50,2,866,59,3,581,-150,-70,701,
2025,2,24,18,26,20,1210,50,2,868,59,3,581,-252,32,1237,
2025,2,24,18,26,21,65535,255,255,-1,-1,255,65535,-1,-1,-1,
2025,2,24,18,26,22,0,0,0,0,0,0,0,0,0,0,
2025,2,24,18,26,23,0,0,0,0,0,0,0,0,0,0,
2025,2,24,18,26,24,0,0,0,0,0,0,0,0,0,0,
2025,2,24,18,26,25,0,0,0,0,0,0,0,0,0,0,
2025,2,24,18,26,26,0,0,0,0,0,0,0,0,0,0,
2025,2,24,18,26,27,0,0,0,0,0,0,0,0,0,0,
2025,2,24,18,26,28,0,0,0,0,0,0,0,0,0,0,
2025,2,24,18,26,29,0,0,0,0,0,0,0,0,0,0,
2025,2,24,18,26,30,0,0,0,0,0,0,0,0,0,0,
2025,2,24,18,26,31,0,0,0,0,0,0,0,0,0,0,
2025,2,24,18,26,32,0,0,0,0,0,0,0,0,0,0,
2025,2,24,18,26,34,0,0,0,0,0,0,0,0,0,0,
2025,2,24,18,26,35,0,0,0,0,0,0,0,0,0,0,
2025,2,24,18,26,36,0,0,0,0,0,0,0,0,0,0,
2025,2,24,18,26,37,0,0,0,0,0,0,0,0,0,0,
2025,2,24,18,26,38,0,0,0,0,0,0,0,0,0,0,
2025,2,24,18,26,39,0,0,0,0,0,0,0,0,0,0,
2025,2,24,18,26,40,0,0,0,0,0,0,0,0,0,0,
2025,2,24,18,26,41,0,0,0,0,0,0,0,0,0,0,
2025,2,24,18,26,42,0,0,0,0,0,0,0,0,0,0,
2025,2,24,18,26,43,0,0,0,0,0,0,0,0,0,0,
2025,2,24,18,26,44,0,0,0,0,0,0,0,0,0,0,
2025,2,24,18,26,45,0,0,0,0,0,0,0,0,0,0,
2025,2,24,18,26,46,0,0,0,0,0,0,0,0,0,0,
2025,2,24,18,26,47,0,0,0,0,0,0,0,0,0,0,
2025,2,24,18,26,48,0,0,0,0,0,0,0,0,0,0,
2025,2,24,18,26,49,0,0,0,0,0,0,0,0,0,0,
2025,2,24,18,26,50,0,0,0,0,0,0,0,0,0,0,
2025,2,24,18,26,51,0,0,0,0,0,0,0,0,0,0,
2025,2,24,18,26,52,0,0,0,0,0,0,0,0,0,0,
2025,2,24,18,26,54,0,0,0,0,0,0,0,0,0,0,
2025,2,24,18,26,55,0,0,0,0,0,0,0,0,0,0,
2025,2,24,18,26,56,0,0,0,0,0,0,0,0,0,0,
2025,2,24,18,26,57,0,0,0,0,0,0,0,0,0,0,
2025,2,24,18,26,58,0,0,0,0,0,0,0,0,0,0,
2025,2,24,18,26,59,0,0,0,0,0,0,0,0,0,0,
2025,2,24,18,27,0,0,0,0,0,0,0,0,0,0,0,
2025,2,24,18,27,1,0,0,0,0,0,0,0,0,0,0,
2025,2,24,18,27,2,0,0,0,0,0,0,0,0,0,0,
2025,2,24,18,27,3,0,0,0,0,0,0,0,0,0,0,
2025,2,24,18,27,4,0,0,0,0,0,0,0,0,0,0,
2025,2,24,18,27,5,0,0,0,0,0,0,0,0,0,0,
2025,2,24,18,27,6,0,0,0,0,0,0,0,0,0,0,
2025,2,24,18,27,7,0,0,0,0,0,0,0,0,0,0,
2025,2,24,18,27,8,0,0,0,0,0,0,0,0,0,0,
2025,2,24,18,27,9,0,0,0,0,0,0,0,0,0,0,
2025,2,24,18,27,10,0,0,0,0,0,0,0,0,0,0,
2025,2,24,18,27,11,0,0,0,0,0,0,0,0,0,0,
2025,2,24,18,27,12,0,0,0,0,0,0,0,0,0,0,
2025,2,24,18,27,14,0,0,0,0,0,0,0,0,0,0,
2025,2,24,18,27,15,0,0,0,0,0,0,0,0,0,0,
2025,2,24,18,27,16,0,0,0,0,0,0,0,0,0,0,
2025,2,24,18,27,17,0,0,0,0,0,0,0,0,0,0,
2025,2,24,18,27,18,0,0,0,0,0,0,0,0,0,0,
2025,2,24,18,27,19,0,0,0,0,0,0,0,0,0,0,
2025,2,24,18,27,20,0,0,0,0,0,0,0,0,0,0,
2025,2,24,18,27,21,0,0,0,0,0,0,0,0,0,0,
