year,month,day,hour,minute,second,HR,HR_conf,Activity,walk_stp,run_stp,scd,r,Acc_X,Acc_Y,Acc_Z,Unnamed: 11
2025,2,27,17,47,4,600,0,1,0,0,2,0,-17,4,-1011,
2025,2,27,17,47,5,600,0,1,0,0,2,0,-20,3,-1006,
2025,2,27,17,47,6,600,0,0,0,0,2,0,-16,0,-1006,
2025,2,27,17,47,7,590,0,0,0,0,3,0,-20,4,-1005,
2025,2,27,17,47,8,590,0,0,0,0,3,0,-17,2,-1010,
2025,2,27,17,47,9,590,0,0,0,0,3,0,-21,3,-1005,
2025,2,27,17,47,10,640,0,0,0,0,3,0,-16,4,-1008,
2025,2,27,17,47,11,840,50,0,0,0,3,0,-14,7,-1004,
2025,2,27,17,47,12,830,50,0,0,0,3,0,-23,-4,-1009,
2025,2,27,17,47,13,830,50,0,0,0,3,0,-22,3,-1005,
2025,2,27,17,47,14,830,50,0,0,0,3,0,-18,1,-1007,
2025,2,27,17,47,15,800,50,0,0,0,3,0,-18,0,-1006,
2025,2,27,17,47,16,780,50,0,0,0,3,0,-15,3,-1009,
2025,2,27,17,47,17,810,100,0,0,0,3,0,-18,2,-1005,
2025,2,27,17,47,18,850,100,0,0,0,3,0,-18,0,-1008,
2025,2,27,17,47,19,850,100,0,0,0,3,0,-16,2,-1006,
2025,2,27,17,47,20,840,100,0,0,0,3,0,-22,2,-1006,
2025,2,27,17,47,21,840,100,0,0,0,3,0,-22,4,-1006,
2025,2,27,17,47,22,830,100,0,0,0,3,0,-17,1,-1006,
2025,2,27,17,47,23,810,100,0,0,0,3,0,-20,0,-1011,
2025,2,27,17,47,24,800,100,0,0,0,3,0,-20,3,-1009,
2025,2,27,17,47,25,800,100,0,0,0,3,584,-16,0,-1006,
2025,2,27,17,47,26,790,100,0,0,0,3,584,-17,2,-1009,
2025,2,27,17,47,27,790,100,0,0,0,3,584,-18,3,-1009,
2025,2,27,17,47,28,780,100,0,0,0,3,696,-21,2,-1010,
2025,2,27,17,47,29,780,100,0,0,0,3,795,-21,4,-1003,
2025,2,27,17,47,30,770,100,0,0,0,3,887,-17,1,-1011,
2025,2,27,17,47,31,760,100,0,0,0,3,953,-17,0,-1008,
2025,2,27,17,47,32,760,100,0,0,0,3,1004,-20,0,-1010,
2025,2,27,17,47,33,750,100,0,0,0,3,1044,-14,0,-1007,
2025,2,27,17,47,34,750,100,0,0,0,3,1075,-21,2,-1009,
2025,2,27,17,47,35,750,100,0,0,0,3,1092,-18,1,-1006,
2025,2,27,17,47,36,740,100,0,0,0,3,1108,-22,6,-1011,
2025,2,27,17,47,37,740,100,0,0,0,3,1122,-15,2,-1003,
2025,2,27,17,47,38,740,100,0,0,0,3,1134,-14,4,-1008,
2025,2,27,17,47,39,730,100,0,0,0,3,1146,-23,4,-1011,
2025,2,27,17,47,40,730,100,0,0,0,3,1156,-22,7,-1006,
2025,2,27,17,47,41,720,100,0,0,0,3,1165,-17,6,-1007,
2025,2,27,17,47,42,720,100,0,0,0,3,1176,-15,1,-1010,
2025,2,27,17,47,43,730,100,0,0,0,3,1189,-14,2,-1005,
2025,2,27,17,47,44,730,100,0,0,0,3,1189,-15,0,-1007,
2025,2,27,17,47,45,740,100,0,0,0,3,1204,-18,0,-1007,
2025,2,27,17,47,46,740,100,0,0,0,3,1220,-15,0,-1007,
2025,2,27,17,47,47,740,100,0,0,0,3,1235,-16,2,-1009,
2025,2,27,17,47,48,730,100,0,0,0,3,1249,-17,2,-1004,
2025,2,27,17,47,49,730,100,0,0,0,3,1262,-16,0,-1007,
2025,2,27,17,47,50,730,100,0,0,0,3,1274,-19,0,-1006,
2025,2,27,17,47,51,730,100,0,0,0,3,1285,-19,2,-1008,
2025,2,27,17,47,52,740,100,0,0,0,3,1292,-19,0,-1003,
2025,2,27,17,47,53,750,100,0,0,0,3,1299,-16,2,-1006,
2025,2,27,17,47,54,750,100,0,0,0,3,1305,-18,4,-1005,
2025,2,27,17,47,55,750,100,0,0,0,3,1310,-22,1,-1008,
2025,2,27,17,47,56,740,100,0,0,0,3,1315,-18,4,-1005,
2025,2,27,17,47,57,740,100,0,0,0,3,1320,-18,0,-1012,
2025,2,27,17,47,58,740,100,0,0,0,3,1324,-20,4,-1006,
2025,2,27,17,47,59,750,100,0,0,0,3,1328,-18,0,-1007,
2025,2,27,17,48,0,760,100,0,0,0,3,1331,-21,0,-1008,
2025,2,27,17,48,1,760,100,0,0,0,3,1334,-20,0,-1011,
2025,2,27,17,48,2,770,100,0,0,0,3,1337,-19,6,-1005,
2025,2,27,17,48,3,770,100,0,0,0,3,1340,-22,-4,-1007,
2025,2,27,17,48,4,770,100,0,0,0,3,1343,-21,8,-1010,
2025,2,27,17,48,5,770,100,0,0,0,3,1345,-21,3,-1004,
2025,2,27,17,48,6,770,100,0,0,0,3,1347,-17,0,-1008,
2025,2,27,17,48,7,780,100,0,0,0,3,1348,-16,3,-1006,
2025,2,27,17,48,8,780,100,0,0,0,3,1350,-18,0,-1005,
2025,2,27,17,48,9,790,100,0,0,0,3,1350,-18,1,-1005,
2025,2,27,17,48,10,790,100,0,0,0,3,1351,-18,2,-1001,
2025,2,27,17,48,11,790,100,0,0,0,3,1352,-20,0,-1005,
2025,2,27,17,48,12,780,100,0,0,0,3,1353,-20,0,-1007,
2025,2,27,17,48,13,780,100,0,0,0,3,1355,-19,1,-1008,
2025,2,27,17,48,14,780,100,0,0,0,3,1356,-17,2,-1008,
2025,2,27,17,48,15,780,100,0,0,0,3,1359,-18,1,-1008,
2025,2,27,17,48,16,770,100,0,0,0,3,1364,-18,1,-1009,
2025,2,27,17,48,17,770,100,0,0,0,3,1370,-20,2,-1008,
2025,2,27,17,48,18,770,100,0,0,0,3,1376,-20,3,-1012,
2025,2,27,17,48,19,770,100,0,0,0,3,1380,-20,2,-1009,
2025,2,27,17,48,20,760,100,0,0,0,3,1383,-16,4,-1009,
2025,2,27,17,48,21,760,100,0,0,0,3,1386,-15,-2,-1005,
2025,2,27,17,48,22,750,100,0,0,0,3,1389,-19,0,-1008,
2025,2,27,17,48,23,750,100,0,0,0,3,1392,-18,0,-1005,
2025,2,27,17,48,24,750,100,0,0,0,3,1390,-20,2,-1006,
2025,2,27,17,48,25,760,100,0,0,0,3,1388,-22,0,-1005,
2025,2,27,17,48,26,760,100,0,0,0,3,1387,-19,2,-1005,
2025,2,27,17,48,27,760,100,0,0,0,3,1390,-24,0,-1011,
2025,2,27,17,48,28,760,100,0,0,0,3,1392,-15,2,-1011,
2025,2,27,17,48,29,750,100,0,0,0,3,1395,-17,0,-1008,
2025,2,27,17,48,30,750,100,0,0,0,3,1398,-18,0,-1006,
2025,2,27,17,48,31,740,100,0,0,0,3,1402,-17,0,-1009,
2025,2,27,17,48,32,750,100,0,0,0,3,1407,-19,0,-1007,
2025,2,27,17,48,33,750,100,0,0,0,3,1412,-21,0,-1007,
2025,2,27,17,48,34,760,100,0,0,0,3,1417,-19,0,-1005,
2025,2,27,17,48,35,760,100,0,0,0,3,1421,-13,2,-1008,
2025,2,27,17,48,36,760,100,0,0,0,3,1424,-16,4,-1007,
2025,2,27,17,48,37,760,100,0,0,0,3,1428,-19,1,-1009,
2025,2,27,17,48,38,760,100,0,0,0,3,1431,-21,1,-1005,
2025,2,27,17,48,39,760,100,0,0,0,3,1434,-21,3,-1009,
2025,2,27,17,48,40,760,100,0,0,0,3,1436,-17,0,-1006,
2025,2,27,17,48,41,760,100,0,0,0,3,1438,-19,0,-1009,
2025,2,27,17,48,42,760,100,0,0,0,3,1440,-19,2,-1006,
2025,2,27,17,48,43,770,100,0,0,0,3,1442,-17,0,-1010,
2025,2,27,17,48,44,770,100,0,0,0,3,1443,-14,0,-1010,
2025,2,27,17,48,45,770,100,0,0,0,3,1445,-15,0,-1008,
2025,2,27,17,48,46,770,100,0,0,0,3,1446,-15,0,-1006,
2025,2,27,17,48,47,770,100,0,0,0,3,1447,-18,3,-1005,
2025,2,27,17,48,48,770,100,0,0,0,3,1446,-20,0,-1007,
2025,2,27,17,48,49,770,100,0,0,0,3,1443,-21,0,-1006,
2025,2,27,17,48,50,770,100,0,0,0,3,1441,-21,3,-1008,
2025,2,27,17,48,51,780,100,0,0,0,3,1439,-21,1,-1007,
2025,2,27,17,48,52,780,100,0,0,0,3,1437,-18,0,-1009,
2025,2,27,17,48,53,780,100,0,0,0,3,1435,-21,0,-1009,
2025,2,27,17,48,54,780,100,0,0,0,3,1433,-20,0,-1005,
2025,2,27,17,48,55,780,100,0,0,0,3,1432,-20,2,-1003,
2025,2,27,17,48,56,780,100,0,0,0,3,1431,-21,3,-1006,
2025,2,27,17,48,57,780,100,0,0,0,3,1430,-23,2,-1004,
2025,2,27,17,48,58,780,100,0,0,0,3,1429,-18,0,-1005,
2025,2,27,17,48,59,780,100,0,0,0,3,1429,-16,3,-1002,
2025,2,27,17,49,0,780,100,0,0,0,3,1429,-23,2,-1009,
2025,2,27,17,49,1,780,100,0,0,0,3,1432,-18,1,-1008,
2025,2,27,17,49,2,780,100,0,0,0,3,1436,-19,0,-1006,
2025,2,27,17,49,3,780,100,0,0,0,3,1440,-22,0,-1009,
2025,2,27,17,49,4,780,100,0,0,0,3,1443,-22,0,-1003,
2025,2,27,17,49,5,780,100,0,0,0,3,1445,-21,1,-1005,
2025,2,27,17,49,6,770,100,0,0,0,3,1447,-16,3,-1009,
2025,2,27,17,49,7,780,100,0,0,0,3,1449,-19,0,-1006,
2025,2,27,17,49,8,780,100,0,0,0,3,1450,-17,0,-1011,
2025,2,27,17,49,9,780,100,0,0,0,3,1451,-19,4,-1005,
2025,2,27,17,49,10,780,100,0,0,0,3,1453,-22,6,-1006,
2025,2,27,17,49,11,780,100,0,0,0,3,1455,-21,1,-1002,
2025,2,27,17,49,12,790,100,0,0,0,3,1456,-21,2,-1005,
2025,2,27,17,49,13,790,100,0,0,0,3,1458,-19,2,-1010,
2025,2,27,17,49,14,790,100,0,0,0,3,1459,-18,-2,-1008,
2025,2,27,17,49,15,800,100,0,0,0,3,1460,-20,0,-1006,
2025,2,27,17,49,16,800,100,0,0,0,3,1462,-24,2,-1007,
2025,2,27,17,49,17,800,100,0,0,0,3,1463,-18,3,-1005,
2025,2,27,17,49,18,800,100,0,0,0,3,1462,-17,1,-1007,
2025,2,27,17,49,19,800,100,0,0,0,3,1462,-18,0,-1008,
2025,2,27,17,49,20,800,100,0,0,0,3,1461,-16,1,-1007,
2025,2,27,17,49,21,810,100,0,0,0,3,1459,-19,2,-1009,
2025,2,27,17,49,22,810,100,0,0,0,3,1458,-20,5,-1009,
2025,2,27,17,49,23,810,100,0,0,0,3,1457,-19,1,-1009,
2025,2,27,17,49,24,810,100,0,0,0,3,1455,-16,1,-1008,
2025,2,27,17,49,25,800,100,0,0,0,3,1454,-22,2,-1011,
2025,2,27,17,49,26,800,100,0,0,0,3,1454,-17,4,-1008,
2025,2,27,17,49,27,800,100,0,0,0,3,1453,-20,4,-1009,
2025,2,27,17,49,28,790,100,0,0,0,3,1452,-18,-2,-1007,
2025,2,27,17,49,29,790,100,0,0,0,3,1451,-23,0,-1007,
2025,2,27,17,49,30,790,100,0,0,0,3,1451,-16,4,-1005,
2025,2,27,17,49,31,790,100,0,0,0,3,1450,-15,0,-1010,
2025,2,27,17,49,32,790,100,0,0,0,3,1450,-18,8,-1006,
2025,2,27,17,49,33,790,100,0,0,0,3,1447,-18,3,-1008,
2025,2,27,17,49,34,790,100,0,0,0,3,1445,-21,0,-1007,
2025,2,27,17,49,35,780,100,0,0,0,3,1443,-19,0,-1004,
2025,2,27,17,49,36,780,100,0,0,0,3,1441,-20,0,-1007,
2025,2,27,17,49,37,780,100,0,0,0,3,1439,-19,-1,-1009,
2025,2,27,17,49,38,780,100,0,0,0,3,1438,-18,2,-1007,
2025,2,27,17,49,39,780,100,0,0,0,3,1436,-20,2,-1006,
2025,2,27,17,49,40,780,100,0,0,0,3,1435,-19,4,-1009,
2025,2,27,17,49,41,780,100,0,0,0,3,1434,-15,0,-1007,
2025,2,27,17,49,42,780,100,0,0,0,3,1437,-22,3,-1009,
2025,2,27,17,49,43,780,100,0,0,0,3,1439,-22,0,-1010,
2025,2,27,17,49,43,770,100,0,0,0,3,1441,-22,0,-1010,
2025,2,27,17,49,44,760,100,0,0,0,3,1443,-15,-2,-1007,
2025,2,27,17,49,45,760,100,0,0,0,3,1445,-23,0,-1009,
2025,2,27,17,49,46,760,100,0,0,0,3,1447,-22,0,-1005,
2025,2,27,17,49,47,760,100,0,0,0,3,1450,-17,2,-1007,
2025,2,27,17,49,48,770,100,0,0,0,3,1453,-16,3,-1011,
2025,2,27,17,49,49,760,100,0,0,0,3,1455,-19,3,-1005,
2025,2,27,17,49,50,760,100,0,0,0,3,1458,-22,3,-1008,
2025,2,27,17,49,51,760,100,0,0,0,3,1460,-18,2,-1005,
2025,2,27,17,49,52,750,100,0,0,0,3,1461,-21,1,-1009,
2025,2,27,17,49,53,740,100,0,0,0,3,1463,-17,5,-1008,
2025,2,27,17,49,54,740,100,0,0,0,3,1465,-20,0,-1007,
2025,2,27,17,49,55,730,100,0,0,0,3,1467,-18,0,-1005,
2025,2,27,17,49,56,740,100,0,0,0,3,1469,-18,0,-1006,
2025,2,27,17,49,57,750,100,0,0,0,3,1469,-19,0,-1006,
2025,2,27,17,49,58,760,100,0,0,0,3,1469,-20,3,-1007,
2025,2,27,17,49,59,760,100,0,0,0,3,1469,-18,2,-1011,
2025,2,27,17,50,0,760,100,0,0,0,3,1469,-20,4,-1006,
2025,2,27,17,50,1,760,100,0,0,0,3,1469,-21,3,-1008,
2025,2,27,17,50,2,750,100,0,0,0,3,1469,-20,0,-1004,
2025,2,27,17,50,3,750,100,0,0,0,3,1470,-20,1,-1006,
2025,2,27,17,50,4,760,100,0,0,0,3,1469,-19,-1,-1007,
2025,2,27,17,50,5,770,100,0,0,0,3,1467,-21,4,-1002,
2025,2,27,17,50,6,770,100,0,0,0,3,1463,-15,0,-1007,
2025,2,27,17,50,7,780,100,0,0,0,3,1458,-20,1,-1006,
2025,2,27,17,50,8,780,100,0,0,0,3,1453,-24,2,-1005,
2025,2,27,17,50,9,770,100,0,0,0,3,1448,-20,6,-1001,
2025,2,27,17,50,10,760,100,0,0,0,3,1444,-21,0,-1009,
2025,2,27,17,50,11,760,100,0,0,0,3,1440,-19,3,-1007,
2025,2,27,17,50,12,750,100,0,0,0,3,1437,-19,1,-1005,
2025,2,27,17,50,13,750,100,0,0,0,3,1434,-17,-2,-1006,
2025,2,27,17,50,14,760,100,0,0,0,3,1431,-23,0,-1006,
2025,2,27,17,50,15,760,100,0,0,0,3,1430,-20,3,-1007,
2025,2,27,17,50,16,760,100,0,0,0,3,1430,-21,1,-1007,
2025,2,27,17,50,17,760,100,0,0,0,3,1430,-20,3,-1006,
2025,2,27,17,50,18,760,100,0,0,0,3,1431,-16,2,-1007,
2025,2,27,17,50,19,750,100,0,0,0,3,1431,-18,3,-1005,
2025,2,27,17,50,20,750,100,0,0,0,3,1431,-20,1,-1009,
2025,2,27,17,50,21,750,100,0,0,0,3,1431,-22,1,-1008,
2025,2,27,17,50,22,760,100,0,0,0,3,1432,-18,0,-1007,
2025,2,27,17,50,23,760,100,0,0,0,3,1432,-15,0,-1004,
2025,2,27,17,50,24,760,100,0,0,0,3,1432,-20,2,-1008,
2025,2,27,17,50,25,750,100,0,0,0,3,1434,-20,3,-1005,
2025,2,27,17,50,26,750,100,0,0,0,3,1437,-17,0,-1010,
2025,2,27,17,50,27,750,100,0,0,0,3,1440,-18,0,-1005,
2025,2,27,17,50,28,740,100,0,0,0,3,1443,-18,2,-1007,
2025,2,27,17,50,29,740,100,0,0,0,3,1446,-18,0,-1006,
2025,2,27,17,50,30,740,100,0,0,0,3,1448,-20,4,-1008,
2025,2,27,17,50,31,740,100,0,0,0,3,1450,-19,0,-1009,
2025,2,27,17,50,32,740,100,0,0,0,3,1452,-20,4,-1007,
2025,2,27,17,50,33,740,100,0,0,0,3,1453,-18,2,-1007,
2025,2,27,17,50,34,740,100,0,0,0,3,1455,-18,0,-1011,
2025,2,27,17,50,35,740,100,0,0,0,3,1455,-22,2,-1007,
2025,2,27,17,50,36,740,75,0,0,0,3,1455,-21,1,-1004,
2025,2,27,17,50,37,740,75,0,0,0,3,1455,-20,-1,-1007,
2025,2,27,17,50,38,740,100,0,0,0,3,1455,-18,9,-1006,
2025,2,27,17,50,39,750,100,0,0,0,3,1455,-19,0,-1010,
2025,2,27,17,50,40,750,100,0,0,0,3,1455,-19,0,-1005,
2025,2,27,17,50,41,750,100,0,0,0,3,1455,-17,0,-1005,
2025,2,27,17,50,42,750,100,0,0,0,3,1455,-21,0,-1006,
2025,2,27,17,50,43,760,100,0,0,0,3,1455,-21,1,-1006,
2025,2,27,17,50,44,760,100,0,0,0,3,1455,-23,4,-1010,
2025,2,27,17,50,45,760,100,0,0,0,3,1455,-23,2,-1008,
2025,2,27,17,50,46,760,100,0,0,0,3,1455,-19,5,-1007,
2025,2,27,17,50,47,760,100,0,0,0,3,1455,-19,0,-1005,
2025,2,27,17,50,48,760,100,0,0,0,3,1440,-19,3,-1009,
2025,2,27,17,50,49,770,100,0,0,0,3,1427,-22,0,-1007,
2025,2,27,17,50,50,760,100,0,0,0,3,1416,-19,-1,-1004,
2025,2,27,17,50,51,760,100,0,0,0,3,1405,-21,0,-1008,
2025,2,27,17,50,52,760,100,0,0,0,3,1396,-22,6,-1006,
2025,2,27,17,50,53,770,100,0,0,0,3,1388,-20,0,-1008,
2025,2,27,17,50,54,770,100,0,0,0,3,1380,-20,1,-1004,
2025,2,27,17,50,55,770,100,0,0,0,3,1374,-19,2,-1007,
2025,2,27,17,50,56,770,100,0,0,0,3,1368,-18,0,-1004,
2025,2,27,17,50,57,770,100,0,0,0,3,1365,-17,1,-1004,
2025,2,27,17,50,58,770,100,0,0,0,3,1362,-18,2,-1012,
2025,2,27,17,50,59,770,100,0,0,0,3,1360,-21,3,-1006,
2025,2,27,17,51,0,770,100,0,0,0,3,1358,-18,6,-1007,
2025,2,27,17,51,1,770,100,0,0,0,3,1358,-18,5,-1009,
2025,2,27,17,51,2,780,100,0,0,0,3,1358,-19,3,-1006,
2025,2,27,17,51,3,780,100,0,0,0,3,1358,-18,2,-1005,
2025,2,27,17,51,4,780,100,0,0,0,3,1358,-21,0,-1005,
2025,2,27,17,51,5,790,100,0,0,0,3,1358,-22,0,-1008,
2025,2,27,17,51,6,790,100,0,0,0,3,1358,-22,5,-1004,
2025,2,27,17,51,7,800,100,0,0,0,3,1358,-23,1,-1005,
2025,2,27,17,51,8,800,100,0,0,0,3,1359,-22,4,-1006,
2025,2,27,17,51,9,810,100,0,0,0,3,1359,-19,-2,-1009,
2025,2,27,17,51,10,820,100,0,0,0,3,1361,-19,2,-1009,
2025,2,27,17,51,11,820,100,0,0,0,3,1361,-22,0,-1009,
2025,2,27,17,51,12,820,100,0,0,0,3,1361,-19,5,-1005,
2025,2,27,17,51,13,820,100,0,0,0,3,1361,-18,1,-1007,
2025,2,27,17,51,14,820,100,0,0,0,3,1361,-19,1,-1006,
2025,2,27,17,51,15,820,100,0,0,0,3,1361,-19,0,-1009,
2025,2,27,17,51,16,820,100,0,0,0,3,1361,-20,3,-1002,
2025,2,27,17,51,17,820,100,0,0,0,3,1361,-20,1,-1008,
2025,2,27,17,51,18,820,75,0,0,0,3,1361,-21,-2,-1010,
2025,2,27,17,51,19,820,75,0,0,0,3,1361,-17,0,-1003,
2025,2,27,17,51,20,830,75,0,0,0,3,1361,-24,0,-1010,
2025,2,27,17,51,21,820,75,0,0,0,3,1361,-20,2,-1004,
2025,2,27,17,51,22,820,100,0,0,0,3,1336,-22,4,-1005,
2025,2,27,17,51,23,820,100,0,0,0,3,1314,-20,2,-1008,
2025,2,27,17,51,24,810,100,0,0,0,3,1293,-19,0,-1006,
2025,2,27,17,51,25,800,100,0,0,0,3,1282,-21,3,-1009,
2025,2,27,17,51,26,800,100,0,0,0,3,1272,-18,-1,-1013,
2025,2,27,17,51,27,800,100,0,0,0,3,1264,-18,2,-1003,
2025,2,27,17,51,28,790,100,0,0,0,3,1256,-18,0,-1008,
2025,2,27,17,51,29,790,100,0,0,0,3,1255,-21,0,-1005,
2025,2,27,17,51,30,790,100,0,0,0,3,1255,-20,0,-1006,
2025,2,27,17,51,31,790,100,0,0,0,3,1259,-20,1,-1007,
2025,2,27,17,51,32,780,100,0,0,0,3,1265,-20,0,-1007,
2025,2,27,17,51,33,780,100,0,0,0,3,1269,-20,3,-1003,
2025,2,27,17,51,34,780,100,0,0,0,3,1274,-20,0,-1001,
2025,2,27,17,51,35,780,100,0,0,0,3,1277,-20,0,-1005,
2025,2,27,17,51,36,770,100,0,0,0,3,1281,-19,2,-1008,
2025,2,27,17,51,37,770,100,0,0,0,3,1284,-21,0,-1006,
2025,2,27,17,51,38,770,100,0,0,0,3,1287,-17,0,-1007,
2025,2,27,17,51,39,770,100,0,0,0,3,1289,-19,1,-1007,
2025,2,27,17,51,40,770,100,0,0,0,3,1293,-19,3,-1006,
2025,2,27,17,51,41,770,100,0,0,0,3,1299,-19,2,-1007,
2025,2,27,17,51,42,770,100,0,0,0,3,1308,-20,2,-1008,
2025,2,27,17,51,43,770,100,0,0,0,3,1321,-21,0,-1010,
2025,2,27,17,51,44,770,100,0,0,0,3,1334,-18,3,-1011,
2025,2,27,17,51,45,770,100,0,0,0,3,1347,-19,0,-1004,
2025,2,27,17,51,46,770,100,0,0,0,3,1363,-20,3,-1005,
2025,2,27,17,51,47,770,100,0,0,0,3,1382,-20,-1,-1006,
2025,2,27,17,51,48,780,100,0,0,0,3,1399,-20,0,-1004,
2025,2,27,17,51,49,780,100,0,0,0,3,1414,-17,2,-1006,
2025,2,27,17,51,50,780,100,0,0,0,3,1427,-21,0,-1004,
2025,2,27,17,51,51,790,100,0,0,0,3,1438,-20,2,-1007,
2025,2,27,17,51,52,790,100,0,0,0,3,1448,-21,3,-1007,
2025,2,27,17,51,53,800,100,0,0,0,3,1457,-18,0,-1006,
2025,2,27,17,51,54,800,100,0,0,0,3,1457,-20,1,-1010,
2025,2,27,17,51,55,810,100,0,0,0,3,1457,-17,0,-1002,
2025,2,27,17,51,56,810,100,0,0,0,3,1466,-18,0,-1007,
2025,2,27,17,51,57,810,100,0,0,0,3,1466,-19,0,-1006,
2025,2,27,17,51,58,820,100,0,0,0,3,1466,-19,3,-1004,
2025,2,27,17,51,59,820,100,0,0,0,3,1473,-21,0,-1006,
2025,2,27,17,52,0,830,100,0,0,0,3,1473,-24,1,-1006,
2025,2,27,17,52,1,830,100,0,0,0,3,1473,-21,3,-1007,
2025,2,27,17,52,2,830,100,0,0,0,3,1476,-21,5,-1004,
2025,2,27,17,52,3,830,100,0,0,0,3,1479,-16,3,-1006,
2025,2,27,17,52,4,840,100,0,0,0,3,1481,-21,0,-1002,
2025,2,27,17,52,5,840,100,0,0,0,3,1480,-19,1,-1007,
2025,2,27,17,52,6,840,100,0,0,0,3,1479,-21,0,-1004,
2025,2,27,17,52,7,840,100,0,0,0,3,1478,-20,3,-1009,
2025,2,27,17,52,8,840,100,0,0,0,3,1478,-24,0,-1004,
2025,2,27,17,52,9,840,100,0,0,0,3,1478,-23,3,-1006,
2025,2,27,17,52,10,840,100,0,0,0,3,1478,-18,2,-1004,
2025,2,27,17,52,11,840,100,0,0,0,3,1478,-22,0,-1008,
2025,2,27,17,52,12,840,100,0,0,0,3,1476,-21,3,-1006,
2025,2,27,17,52,13,840,100,0,0,0,3,1474,-23,3,-1007,
2025,2,27,17,52,14,840,100,0,0,0,3,1473,-17,2,-1003,
2025,2,27,17,52,15,840,100,0,0,0,3,1471,-21,5,-1003,
2025,2,27,17,52,16,840,100,0,0,0,3,1471,-17,2,-1006,
2025,2,27,17,52,17,850,100,0,0,0,3,1468,-23,2,-1009,
2025,2,27,17,52,18,850,100,0,0,0,3,1462,-20,0,-1007,
2025,2,27,17,52,19,850,100,0,0,0,3,1456,-22,5,-1003,
2025,2,27,17,52,20,850,100,0,0,0,3,1451,-18,4,-1001,
2025,2,27,17,52,21,850,100,0,0,0,3,1451,-19,0,-1008,
2025,2,27,17,52,22,850,100,0,0,0,3,1451,-19,3,-1007,
2025,2,27,17,52,23,850,100,0,0,0,3,1445,-22,1,-1007,
2025,2,27,17,52,24,850,100,0,0,0,3,1438,-19,2,-1007,
2025,2,27,17,52,25,850,100,0,0,0,3,1432,-20,1,-1006,
2025,2,27,17,52,26,840,100,0,0,0,3,1427,-20,0,-1005,
2025,2,27,17,52,27,840,100,0,0,0,3,1422,-22,5,-1006,
2025,2,27,17,52,28,840,100,0,0,0,3,1418,-19,0,-1007,
2025,2,27,17,52,29,840,100,0,0,0,3,1415,-22,4,-1007,
2025,2,27,17,52,30,840,100,0,0,0,3,1412,-19,5,-1009,
2025,2,27,17,52,31,840,100,0,0,0,3,1410,-19,2,-1006,
2025,2,27,17,52,32,830,100,0,0,0,3,1408,-22,2,-1004,
2025,2,27,17,52,33,830,100,0,0,0,3,1405,-19,1,-1005,
2025,2,27,17,52,34,830,100,0,0,0,3,1401,-21,0,-1004,
2025,2,27,17,52,35,830,100,0,0,0,3,1391,-18,4,-1003,
2025,2,27,17,52,36,830,100,0,0,0,3,1382,-21,2,-1010,
2025,2,27,17,52,37,830,100,0,0,0,3,1373,-20,0,-1006,
2025,2,27,17,52,38,830,100,0,0,0,3,1366,-20,1,-1010,
2025,2,27,17,52,39,830,100,0,0,0,3,1359,-20,1,-1007,
2025,2,27,17,52,40,830,100,0,0,0,3,1353,-21,0,-1003,
2025,2,27,17,52,41,830,100,0,0,0,3,1350,-20,0,-1009,
2025,2,27,17,52,42,830,100,0,0,0,3,1347,-18,4,-1002,
2025,2,27,17,52,43,830,100,0,0,0,3,1347,-16,1,-1008,
2025,2,27,17,52,44,830,100,0,0,0,3,1345,-18,1,-1002,
2025,2,27,17,52,45,830,100,0,0,0,3,1344,-20,1,-1004,
2025,2,27,17,52,46,830,100,0,0,0,3,1345,-22,4,-1007,
2025,2,27,17,52,47,830,100,0,0,0,3,1347,-21,3,-1007,
2025,2,27,17,52,48,820,100,0,0,0,3,1349,-21,2,-1005,
2025,2,27,17,52,49,820,100,0,0,0,3,1351,-18,2,-1009,
2025,2,27,17,52,50,820,100,0,0,0,3,1352,-19,3,-1004,
2025,2,27,17,52,51,820,100,0,0,0,3,1354,-20,5,-1007,
2025,2,27,17,52,52,820,100,0,0,0,3,1355,-17,0,-1009,
2025,2,27,17,52,53,820,100,0,0,0,3,1356,-23,0,-1005,
2025,2,27,17,52,54,820,100,0,0,0,3,1357,-17,-1,-1004,
2025,2,27,17,52,55,820,100,0,0,0,3,1359,-21,-1,-1004,
2025,2,27,17,52,56,820,100,0,0,0,3,1362,-20,2,-1006,
2025,2,27,17,52,57,820,100,0,0,0,3,1366,-21,1,-1008,
2025,2,27,17,52,58,820,100,0,0,0,3,1373,-18,0,-1007,
2025,2,27,17,52,59,820,100,0,0,0,3,1378,-21,3,-1008,
2025,2,27,17,53,0,820,100,0,0,0,3,1383,-21,3,-1004,
2025,2,27,17,53,1,820,100,0,0,0,3,1388,-19,0,-1009,
2025,2,27,17,53,2,830,100,0,0,0,3,1388,-20,0,-1000,
2025,2,27,17,53,3,830,100,0,0,0,3,1385,-16,1,-1006,
2025,2,27,17,53,4,830,100,0,0,0,3,1383,-22,0,-1008,
2025,2,27,17,53,5,830,100,0,0,0,3,1381,-18,0,-1005,
2025,2,27,17,53,6,830,100,0,0,0,3,1379,-18,1,-1006,
2025,2,27,17,53,7,830,100,0,0,0,3,1376,-19,5,-1008,
2025,2,27,17,53,8,830,100,0,0,0,3,1373,-16,6,-1004,
2025,2,27,17,53,9,830,100,0,0,0,3,1370,-22,-1,-1007,
2025,2,27,17,53,10,830,100,0,0,0,3,1369,-19,0,-1003,
2025,2,27,17,53,11,830,100,0,0,0,3,1368,-16,3,-1010,
2025,2,27,17,53,12,830,100,0,0,0,3,1368,-19,5,-1007,
2025,2,27,17,53,13,830,100,0,0,0,3,1367,-21,0,-1007,
2025,2,27,17,53,14,840,100,0,0,0,3,1367,-21,3,-1007,
2025,2,27,17,53,15,840,100,0,0,0,3,1366,-22,1,-1006,
2025,2,27,17,53,16,840,100,0,0,0,3,1366,-22,3,-1008,
2025,2,27,17,53,17,840,100,0,0,0,3,1362,-18,4,-1010,
2025,2,27,17,53,18,840,100,0,0,0,3,1362,-18,1,-1004,
2025,2,27,17,53,19,840,100,0,0,0,3,1362,-18,5,-1007,
2025,2,27,17,53,20,840,75,0,0,0,3,1362,-17,8,-1007,
2025,2,27,17,53,21,850,75,0,0,0,3,1362,-19,2,-1011,
2025,2,27,17,53,22,850,75,0,0,0,3,1362,-23,0,-1008,
2025,2,27,17,53,23,860,75,0,0,0,3,1356,-24,2,-1006,
2025,2,27,17,53,24,860,75,0,0,0,3,1349,-17,1,-1006,
2025,2,27,17,53,25,860,75,0,0,0,3,1349,-21,3,-1006,
2025,2,27,17,53,26,860,75,0,0,0,3,1349,-25,0,-1005,
2025,2,27,17,53,27,860,100,0,0,0,3,1349,-21,1,-1008,
2025,2,27,17,53,28,860,100,0,0,0,3,1349,-20,1,-1007,
2025,2,27,17,53,29,850,100,0,0,0,3,1349,-22,2,-1004,
2025,2,27,17,53,30,850,100,0,0,0,3,1343,-15,2,-1010,
2025,2,27,17,53,31,840,100,0,0,0,3,1337,-24,3,-1006,
2025,2,27,17,53,32,840,100,0,0,0,3,1322,-18,1,-1007,
2025,2,27,17,53,33,840,100,0,0,0,3,1304,-19,0,-1002,
2025,2,27,17,53,34,840,100,0,0,0,3,1288,-20,1,-1007,
2025,2,27,17,53,35,830,100,0,0,0,3,1288,-18,0,-1004,
2025,2,27,17,53,36,830,100,0,0,0,3,1288,-19,0,-1006,
2025,2,27,17,53,37,820,100,0,0,0,3,1288,-19,1,-1004,
2025,2,27,17,53,38,820,100,0,0,0,3,1288,-20,4,-1007,
2025,2,27,17,53,39,810,100,0,0,0,3,1288,-19,2,-1007,
2025,2,27,17,53,40,810,100,0,0,0,3,1272,-20,3,-1005,
2025,2,27,17,53,41,800,100,0,0,0,3,1259,-18,0,-1004,
2025,2,27,17,53,42,800,100,0,0,0,3,1248,-21,0,-1003,
2025,2,27,17,53,43,790,100,0,0,0,3,1238,-21,0,-1006,
2025,2,27,17,53,43,780,100,0,0,0,3,1232,-21,0,-1006,
2025,2,27,17,53,44,780,100,0,0,0,3,1231,-21,3,-1006,
2025,2,27,17,53,45,770,100,0,0,0,3,1231,-22,1,-1010,
2025,2,27,17,53,46,770,100,0,0,0,3,1231,-21,0,-1005,
2025,2,27,17,53,47,780,100,0,0,0,3,1232,-20,0,-1002,
2025,2,27,17,53,48,770,100,0,0,0,3,1232,-20,3,-1010,
2025,2,27,17,53,49,770,100,0,0,0,3,1232,-22,7,-1008,
2025,2,27,17,53,50,770,100,0,0,0,3,1233,-23,1,-1008,
2025,2,27,17,53,51,760,100,0,0,0,3,1233,-17,0,-1006,
2025,2,27,17,53,52,770,100,0,0,0,3,1233,-15,2,-1008,
2025,2,27,17,53,53,770,100,0,0,0,3,1233,-19,0,-1005,
2025,2,27,17,53,54,770,100,0,0,0,3,1236,-19,0,-1006,
2025,2,27,17,53,55,770,100,0,0,0,3,1243,-19,4,-1003,
2025,2,27,17,53,56,770,100,0,0,0,3,1249,-19,2,-1003,
2025,2,27,17,53,57,770,100,0,0,0,3,1254,-22,1,-1008,
2025,2,27,17,53,58,780,100,0,0,0,3,1259,-21,0,-1007,
2025,2,27,17,53,59,780,100,0,0,0,3,1264,-24,1,-1005,
2025,2,27,17,54,0,780,100,0,0,0,3,1268,-22,1,-1005,
2025,2,27,17,54,1,770,100,0,0,0,3,1273,-19,1,-1002,
2025,2,27,17,54,2,770,100,0,0,0,3,1277,-19,0,-1004,
2025,2,27,17,54,3,770,100,0,0,0,3,1279,-19,0,-1009,
2025,2,27,17,54,4,770,100,0,0,0,3,1280,-19,5,-1009,
2025,2,27,17,54,5,770,100,0,0,0,3,1281,-22,1,-1008,
2025,2,27,17,54,6,780,100,0,0,0,3,1282,-18,0,-1005,
2025,2,27,17,54,7,770,100,0,0,0,3,1282,-21,0,-1003,
2025,2,27,17,54,8,770,100,0,0,0,3,1283,-20,3,-1007,
2025,2,27,17,54,9,770,100,0,0,0,3,1283,-22,1,-1006,
2025,2,27,17,54,10,770,100,0,0,0,3,1283,-18,2,-1006,
2025,2,27,17,54,11,770,100,0,0,0,3,1283,-20,5,-1010,
2025,2,27,17,54,12,770,100,0,0,0,3,1283,-23,1,-1009,
2025,2,27,17,54,13,770,100,0,0,0,3,1283,-20,3,-1008,
2025,2,27,17,54,14,770,100,0,0,0,3,1283,-20,0,-1006,
2025,2,27,17,54,15,770,100,0,0,0,3,1283,-20,3,-1005,
2025,2,27,17,54,16,780,100,0,0,0,3,1286,-17,2,-1009,
2025,2,27,17,54,17,780,100,0,0,0,3,1288,-20,5,-1004,
2025,2,27,17,54,18,770,100,0,0,0,3,1290,-21,4,-1007,
2025,2,27,17,54,19,770,100,0,0,0,3,1291,-19,0,-1004,
2025,2,27,17,54,20,770,100,0,0,0,3,1293,-19,2,-1006,
2025,2,27,17,54,21,770,100,0,0,0,3,1294,-23,2,-1005,
2025,2,27,17,54,22,770,100,0,0,0,3,1296,-20,2,-1010,
2025,2,27,17,54,23,780,100,0,0,0,3,1297,-22,2,-1003,
2025,2,27,17,54,24,780,100,0,0,0,3,1299,-25,0,-1005,
2025,2,27,17,54,25,780,100,0,0,0,3,1302,-20,3,-1007,
2025,2,27,17,54,26,780,100,0,0,0,3,1306,-19,3,-1007,
2025,2,27,17,54,27,780,100,0,0,0,3,1310,-19,2,-1006,
2025,2,27,17,54,28,780,100,0,0,0,3,1313,-18,2,-1010,
2025,2,27,17,54,29,780,100,0,0,0,3,1316,-16,3,-1009,
2025,2,27,17,54,30,790,100,0,0,0,3,1319,-23,3,-1005,
2025,2,27,17,54,31,790,100,0,0,0,3,1322,-14,6,-1005,
2025,2,27,17,54,32,790,100,0,0,0,3,1325,-19,4,-1005,
2025,2,27,17,54,33,790,100,0,0,0,3,1328,-20,5,-1003,
2025,2,27,17,54,34,790,100,0,0,0,3,1330,-23,1,-1002,
2025,2,27,17,54,35,790,100,0,0,0,3,1333,-22,1,-1005,
2025,2,27,17,54,36,780,100,0,0,0,3,1334,-21,1,-1010,
2025,2,27,17,54,37,780,100,0,0,0,3,1335,-18,5,-1005,
2025,2,27,17,54,38,770,100,0,0,0,3,1336,-23,1,-1004,
2025,2,27,17,54,39,770,100,0,0,0,3,1338,-133,-305,-1004,
2025,2,27,17,54,40,770,100,0,0,0,3,1340,-24,3,-1010,
2025,2,27,17,54,41,780,100,0,0,0,3,1343,-19,1,-1008,
2025,2,27,17,54,42,770,75,0,0,0,3,1345,-21,3,-1004,
2025,2,27,17,54,43,770,75,0,0,0,3,1347,-20,0,-1008,
2025,2,27,17,54,44,780,75,0,0,0,3,1349,-18,1,-1005,
2025,2,27,17,54,45,780,75,0,0,0,3,1350,-15,2,-1002,
2025,2,27,17,54,46,770,75,0,0,0,3,1350,-18,4,-1014,
2025,2,27,17,54,47,770,75,0,0,0,3,1350,-25,5,-1005,
2025,2,27,17,54,48,770,100,0,0,0,3,1350,-20,3,-1009,
2025,2,27,17,54,49,770,100,0,0,0,3,1350,-20,5,-1008,
2025,2,27,17,54,50,770,100,0,0,0,3,1341,-21,3,-1005,
2025,2,27,17,54,51,770,100,0,0,0,3,1332,-22,-1,-1007,
2025,2,27,17,54,52,770,100,0,0,0,3,1324,-21,4,-1009,
2025,2,27,17,54,53,760,100,0,0,0,3,1316,-21,2,-1006,
2025,2,27,17,54,54,750,100,0,0,0,3,1311,-24,1,-1001,
2025,2,27,17,54,55,750,100,0,0,0,3,1307,-19,4,-1009,
2025,2,27,17,54,56,760,100,0,0,0,3,1307,-20,-1,-1007,
2025,2,27,17,54,57,760,100,0,0,0,3,1306,-22,3,-1007,
2025,2,27,17,54,58,760,100,0,0,0,3,1306,-21,1,-1006,
2025,2,27,17,54,59,760,100,0,0,0,3,1306,-20,3,-1005,
2025,2,27,17,55,0,760,100,0,0,0,3,1308,-21,0,-1007,
2025,2,27,17,55,1,750,100,0,0,0,3,1308,-17,5,-1006,
2025,2,27,17,55,2,740,100,0,0,0,3,1308,-20,2,-1009,
2025,2,27,17,55,3,740,100,0,0,0,3,1308,-19,0,-1008,
2025,2,27,17,55,4,750,100,0,0,0,3,1308,-21,0,-1006,
2025,2,27,17,55,5,750,100,0,0,0,3,1308,-16,0,-1009,
2025,2,27,17,55,6,760,100,0,0,0,3,1307,-19,-1,-1008,
2025,2,27,17,55,7,760,100,0,0,0,3,1307,-17,5,-1003,
2025,2,27,17,55,8,760,100,0,0,0,3,1307,-22,1,-1004,
2025,2,27,17,55,9,760,100,0,0,0,3,1309,-21,2,-1002,
2025,2,27,17,55,10,770,100,0,0,0,3,1311,-19,1,-1010,
2025,2,27,17,55,11,770,100,0,0,0,3,1315,-22,3,-1006,
