year,month,day,hour,minute,second,HR,HR_conf,Activity,walk_stp,run_stp,scd,r,Acc_X,Acc_Y,Acc_Z,Unnamed: 11
2025,2,27,18,35,28,780,75,0,0,0,3,0,-468,-551,677,
2025,2,27,18,35,29,780,100,0,0,0,3,0,-465,-540,682,
2025,2,27,18,35,30,800,100,0,0,0,3,0,-476,-544,687,
2025,2,27,18,35,31,800,100,0,0,0,3,0,-492,-524,687,
2025,2,27,18,35,32,790,100,0,0,0,3,0,-504,-511,677,
2025,2,27,18,35,33,800,100,0,0,0,3,0,-504,-520,670,
2025,2,27,18,35,34,810,100,0,0,0,3,526,-506,-518,676,
2025,2,27,18,35,35,820,100,0,0,0,3,531,-542,-487,679,
2025,2,27,18,35,36,840,100,0,0,0,3,533,-549,-488,663,
2025,2,27,18,35,37,850,100,0,0,0,3,534,-562,-437,676,
2025,2,27,18,35,38,860,100,0,0,0,3,538,-619,-391,645,
2025,2,27,18,35,39,860,100,0,0,0,3,538,-515,-528,500,
2025,2,27,18,35,40,860,75,0,0,0,3,538,-901,-300,288,
2025,2,27,18,35,41,860,75,0,0,0,3,538,-858,-403,295,
2025,2,27,18,35,42,850,75,0,0,0,3,538,-767,-415,431,
2025,2,27,18,35,43,840,75,0,0,0,3,538,-828,-354,409,
2025,2,27,18,35,44,830,75,0,0,0,3,538,-816,-344,403,
2025,2,27,18,35,45,820,75,0,0,0,3,538,-931,-337,224,
2025,2,27,18,35,46,810,75,0,0,0,3,538,-919,-313,234,
2025,2,27,18,35,47,810,75,0,0,0,3,538,-912,-318,208,
2025,2,27,18,35,48,800,75,0,0,0,3,538,-952,-266,190,
2025,2,27,18,35,49,800,75,0,0,0,3,538,-944,-298,203,
2025,2,27,18,35,50,800,75,0,0,0,3,538,-907,-362,227,
2025,2,27,18,35,51,800,75,0,0,0,3,538,-917,-328,210,
2025,2,27,18,35,52,800,75,0,0,0,3,538,-916,-331,232,
2025,2,27,18,35,53,800,75,0,0,0,3,548,-920,-319,203,
2025,2,27,18,35,54,810,75,0,0,0,3,555,-921,-303,215,
2025,2,27,18,35,55,820,75,0,0,0,3,560,-924,-310,210,
2025,2,27,18,35,56,830,75,0,0,0,3,564,-929,-335,191,
2025,2,27,18,35,57,820,75,0,0,0,3,567,-908,-332,183,
2025,2,27,18,35,58,820,75,0,0,0,3,568,-935,-287,203,
2025,2,27,18,35,59,820,75,0,0,0,3,570,-933,-290,200,
2025,2,27,18,36,0,820,75,0,0,0,3,571,-942,-287,203,
2025,2,27,18,36,1,820,75,0,0,0,3,572,-895,-416,256,
2025,2,27,18,36,2,820,75,0,0,0,3,572,-971,-281,287,
2025,2,27,18,36,3,840,75,0,0,0,3,572,-926,-330,185,
2025,2,27,18,36,4,850,75,0,0,0,3,572,-928,-324,158,
2025,2,27,18,36,5,850,75,0,0,0,3,572,-938,-316,136,
2025,2,27,18,36,6,860,75,0,0,0,3,572,-933,-326,157,
2025,2,27,18,36,7,860,75,0,0,0,3,572,-942,-322,177,
2025,2,27,18,36,8,860,75,0,0,0,3,572,-933,-314,159,
2025,2,27,18,36,9,860,100,0,0,0,3,572,-937,-311,139,
2025,2,27,18,36,10,850,100,0,0,0,3,573,-914,-332,159,
2025,2,27,18,36,11,850,100,0,0,0,3,574,-945,-358,194,
2025,2,27,18,36,12,840,100,0,0,0,3,575,-974,-347,138,
2025,2,27,18,36,13,840,75,0,0,0,3,576,-942,-337,154,
2025,2,27,18,36,14,840,75,0,0,0,3,576,-913,-365,233,
2025,2,27,18,36,15,840,75,0,0,0,3,575,-911,-331,183,
2025,2,27,18,36,16,840,75,0,0,0,3,575,-942,-307,193,
2025,2,27,18,36,17,830,75,0,0,0,3,575,-878,-326,190,
2025,2,27,18,36,18,830,75,0,0,0,3,575,-917,-342,189,
2025,2,27,18,36,19,830,75,0,0,0,3,575,-922,-369,192,
2025,2,27,18,36,20,830,100,0,0,0,3,575,-921,-346,177,
2025,2,27,18,36,21,830,100,0,0,0,3,576,-923,-343,194,
2025,2,27,18,36,22,820,100,0,0,0,3,578,-914,-342,212,
2025,2,27,18,36,23,820,100,0,0,0,3,582,-897,-404,228,
2025,2,27,18,36,24,810,100,0,0,0,3,586,-908,-345,188,
2025,2,27,18,36,25,810,100,0,0,0,3,591,-906,-333,202,
2025,2,27,18,36,26,800,100,0,0,0,3,597,-928,-325,155,
2025,2,27,18,36,27,800,100,0,0,0,3,603,-933,-320,161,
2025,2,27,18,36,28,800,100,0,0,0,3,607,-859,-343,192,
2025,2,27,18,36,29,800,100,0,0,0,3,607,-912,-367,191,
2025,2,27,18,36,30,810,100,0,0,0,3,606,-915,-358,177,
2025,2,27,18,36,31,810,100,0,0,0,3,605,-919,-357,178,
2025,2,27,18,36,32,810,100,0,0,0,3,604,-910,-343,168,
2025,2,27,18,36,33,810,100,0,0,0,3,604,-922,-343,169,
2025,2,27,18,36,34,810,100,0,0,0,3,603,-922,-351,207,
2025,2,27,18,36,35,810,100,0,0,0,3,604,-895,-405,221,
2025,2,27,18,36,36,820,100,0,0,0,3,604,-904,-395,208,
2025,2,27,18,36,37,820,100,0,0,0,3,605,-902,-411,171,
2025,2,27,18,36,38,820,100,0,0,0,3,608,-912,-351,173,
2025,2,27,18,36,39,830,75,0,0,0,3,611,-917,-339,203,
2025,2,27,18,36,40,830,75,0,0,0,3,614,-915,-345,210,
2025,2,27,18,36,41,840,100,0,0,0,3,618,-919,-346,202,
2025,2,27,18,36,42,840,100,0,0,0,3,622,-909,-363,195,
2025,2,27,18,36,43,850,75,0,0,0,3,625,-922,-339,181,
2025,2,27,18,36,44,850,75,0,0,0,3,628,-931,-323,167,
2025,2,27,18,36,45,850,100,0,0,0,3,631,-932,-332,172,
2025,2,27,18,36,46,850,100,0,0,0,3,633,-928,-321,179,
2025,2,27,18,36,47,840,100,0,0,0,3,636,-944,-393,244,
2025,2,27,18,36,48,840,50,0,0,0,3,638,-865,-320,244,
2025,2,27,18,36,49,830,50,0,0,0,3,639,-922,-311,283,
2025,2,27,18,36,50,830,50,0,0,0,3,641,-895,-330,134,
2025,2,27,18,36,51,820,75,0,0,0,3,643,-930,-331,149,
2025,2,27,18,36,52,810,75,0,0,0,3,644,-1002,-139,300,
2025,2,27,18,36,53,810,50,0,0,0,3,646,-833,-384,337,
2025,2,27,18,36,54,800,50,0,0,0,3,646,-824,-395,419,
2025,2,27,18,36,55,800,75,0,0,0,3,647,-829,-369,408,
2025,2,27,18,36,56,790,75,0,0,0,3,648,-815,-360,399,
2025,2,27,18,36,57,790,75,0,0,0,3,648,-909,-412,192,
2025,2,27,18,36,58,790,75,0,0,0,3,648,-935,-259,244,
2025,2,27,18,36,59,790,75,1,0,0,3,648,-880,-349,121,
2025,2,27,18,37,0,790,75,1,0,0,3,648,-907,-222,262,
2025,2,27,18,37,1,800,75,1,0,0,3,648,-950,-314,146,
2025,2,27,18,37,2,800,75,1,0,0,3,648,-1013,-308,230,
2025,2,27,18,37,3,810,75,1,0,0,3,648,-852,-259,222,
2025,2,27,18,37,4,820,75,1,0,0,3,648,-904,-190,257,
2025,2,27,18,37,5,830,75,1,0,0,3,648,-1234,-273,193,
2025,2,27,18,37,6,830,75,2,1,0,3,648,-1237,-273,90,
2025,2,27,18,37,7,850,75,2,2,0,3,648,-1037,-300,150,
2025,2,27,18,37,8,860,50,2,4,0,3,648,-847,-273,86,
2025,2,27,18,37,9,880,50,2,6,0,3,648,-812,-297,147,
2025,2,27,18,37,10,900,25,2,8,0,3,648,-772,-284,122,
2025,2,27,18,37,11,920,25,2,10,0,3,648,-820,-251,113,
2025,2,27,18,37,12,940,25,2,12,0,3,648,-912,-244,149,
2025,2,27,18,37,13,960,25,2,14,0,3,648,-1043,-318,225,
2025,2,27,18,37,14,980,25,2,15,0,3,648,-982,-369,167,
2025,2,27,18,37,15,1000,25,2,17,0,3,648,-1099,-406,358,
2025,2,27,18,37,16,1020,25,2,19,0,3,648,-1127,-350,268,
2025,2,27,18,37,17,1030,25,2,21,0,3,648,-1019,-345,305,
2025,2,27,18,37,18,1040,25,2,23,0,3,648,-927,-323,334,
2025,2,27,18,37,19,1050,25,2,25,0,3,648,-839,-251,308,
2025,2,27,18,37,20,1060,25,2,27,0,3,648,-840,-270,256,
2025,2,27,18,37,21,1070,25,2,29,0,3,648,-768,-243,253,
2025,2,27,18,37,22,1080,25,2,31,0,3,648,-968,-254,248,
2025,2,27,18,37,23,1080,25,2,33,0,3,648,-937,-272,284,
2025,2,27,18,37,24,1090,25,2,34,0,3,648,-939,-275,219,
2025,2,27,18,37,25,1090,25,2,36,0,3,648,-1249,-290,205,
2025,2,27,18,37,26,1090,25,2,38,0,3,648,-1024,-337,175,
2025,2,27,18,37,27,1090,25,2,40,0,3,648,-1032,-318,172,
2025,2,27,18,37,28,1090,50,2,42,0,3,648,-810,-324,188,
2025,2,27,18,37,29,1090,50,2,44,0,3,648,-790,-255,180,
2025,2,27,18,37,30,1090,50,2,46,0,3,648,-770,-292,163,
2025,2,27,18,37,31,1090,50,2,48,0,3,648,-754,-288,171,
2025,2,27,18,37,32,1100,50,2,50,0,3,648,-829,-306,162,
2025,2,27,18,37,33,1100,50,2,52,0,3,648,-908,-326,211,
2025,2,27,18,37,34,1110,75,2,54,0,3,648,-980,-345,215,
2025,2,27,18,37,35,1110,75,2,56,0,3,648,-442,-420,459,
2025,2,27,18,37,36,1120,50,2,57,0,3,648,-527,-757,685,
2025,2,27,18,37,37,1130,50,2,59,0,3,648,-1011,-671,399,
2025,2,27,18,37,38,1140,50,2,61,0,3,648,-1099,-463,260,
2025,2,27,18,37,39,1140,50,2,63,0,3,648,-903,-393,376,
2025,2,27,18,37,40,1150,75,2,65,0,3,648,-839,-327,355,
2025,2,27,18,37,41,1150,75,2,67,0,3,648,-860,-363,329,
2025,2,27,18,37,42,1150,75,2,69,0,3,648,-804,-300,314,
2025,2,27,18,37,43,1160,75,2,71,0,3,648,-757,-278,308,
2025,2,27,18,37,44,1160,75,2,73,0,3,648,-726,-238,305,
2025,2,27,18,37,45,1150,75,2,74,0,3,648,-902,-236,288,
2025,2,27,18,37,46,1150,75,2,76,0,3,648,-856,-241,179,
2025,2,27,18,37,47,1150,75,2,78,0,3,648,-1178,-302,274,
2025,2,27,18,37,48,1150,75,2,80,0,3,648,-993,-303,243,
2025,2,27,18,37,49,1140,75,2,82,0,3,648,-1061,-297,171,
2025,2,27,18,37,50,1140,75,2,84,0,3,648,-840,-279,213,
2025,2,27,18,37,51,1140,75,2,86,0,3,648,-749,-311,190,
2025,2,27,18,37,52,1130,75,2,88,0,3,648,-778,-327,158,
2025,2,27,18,37,52,1130,75,2,90,0,3,648,-778,-327,158,
2025,2,27,18,37,53,1130,75,2,92,0,3,648,-929,-397,234,
2025,2,27,18,37,54,1130,75,2,94,0,3,648,-995,-418,229,
2025,2,27,18,37,55,1130,75,2,95,0,3,648,-1170,-442,410,
2025,2,27,18,37,56,1130,75,2,97,0,3,648,-987,-403,373,
2025,2,27,18,37,57,1120,75,2,99,0,3,648,-930,-401,359,
2025,2,27,18,37,58,1120,75,2,101,0,3,648,-879,-337,366,
2025,2,27,18,37,59,1120,75,2,103,0,3,648,-850,-367,355,
2025,2,27,18,38,0,1120,75,2,105,0,3,648,-781,-224,292,
2025,2,27,18,38,1,1120,75,2,107,0,3,648,-875,-227,308,
2025,2,27,18,38,2,1120,75,2,109,0,3,648,-930,-383,295,
2025,2,27,18,38,3,1120,75,2,110,0,3,648,-1053,-440,340,
2025,2,27,18,38,4,1120,75,2,112,0,3,648,-999,-375,275,
2025,2,27,18,38,5,1120,75,2,114,0,3,648,-894,-337,205,
2025,2,27,18,38,6,1120,75,2,116,0,3,648,-750,-333,211,
2025,2,27,18,38,7,1120,100,2,118,0,3,648,-772,-315,162,
2025,2,27,18,38,8,1120,100,2,120,0,3,648,-732,-312,169,
2025,2,27,18,38,9,1120,100,2,122,0,3,648,-835,-365,227,
2025,2,27,18,38,10,1110,100,2,124,0,3,648,-946,-377,220,
2025,2,27,18,38,11,1110,100,2,125,0,3,648,-1132,-529,417,
2025,2,27,18,38,12,1110,100,2,127,0,3,648,-944,-406,340,
2025,2,27,18,38,13,1110,100,2,129,0,3,648,-938,-474,334,
2025,2,27,18,38,14,1110,100,2,131,0,3,648,-876,-364,341,
2025,2,27,18,38,15,1110,100,2,133,0,3,648,-706,-295,276,
2025,2,27,18,38,16,1110,100,2,135,0,3,648,-757,-269,319,
2025,2,27,18,38,17,1110,100,2,137,0,3,648,-948,-272,346,
2025,2,27,18,38,18,1110,100,2,139,0,3,648,-855,-298,218,
2025,2,27,18,38,19,1100,100,2,141,0,3,648,-1150,-281,324,
2025,2,27,18,38,20,1100,100,2,142,0,3,648,-988,-279,249,
2025,2,27,18,38,21,1090,100,2,144,0,3,648,-915,-304,210,
2025,2,27,18,38,22,1090,75,2,146,0,3,648,-851,-377,221,
2025,2,27,18,38,23,1090,75,2,148,0,3,648,-735,-337,264,
2025,2,27,18,38,24,1090,100,2,150,0,3,648,-766,-329,224,
2025,2,27,18,38,25,1090,100,2,152,0,3,648,-906,-326,238,
2025,2,27,18,38,26,1090,100,2,154,0,3,648,-1013,-351,309,
2025,2,27,18,38,27,1090,100,2,156,0,3,648,-926,-429,214,
2025,2,27,18,38,28,1090,100,2,157,0,3,648,-1213,-467,414,
2025,2,27,18,38,29,1090,100,2,159,0,3,648,-934,-409,327,
2025,2,27,18,38,30,1090,100,2,161,0,3,648,-931,-401,388,
2025,2,27,18,38,31,1080,100,2,163,0,3,648,-881,-412,364,
2025,2,27,18,38,32,1080,100,2,165,0,3,648,-829,-315,337,
2025,2,27,18,38,33,1080,100,2,167,0,3,648,-762,-289,305,
2025,2,27,18,38,34,1080,100,2,169,0,3,648,-770,-232,311,
2025,2,27,18,38,35,1080,100,2,171,0,3,648,-894,-239,316,
2025,2,27,18,38,36,1080,100,2,173,0,3,648,-917,-285,345,
2025,2,27,18,38,37,1070,100,2,175,0,3,648,-990,-308,311,
2025,2,27,18,38,38,1080,100,2,177,0,3,648,-1148,-315,183,
2025,2,27,18,38,39,1080,100,2,178,0,3,648,-936,-287,203,
2025,2,27,18,38,40,1080,100,2,180,0,3,648,-782,-308,176,
2025,2,27,18,38,41,1080,100,2,182,0,3,648,-791,-296,156,
2025,2,27,18,38,42,1090,100,2,184,0,3,648,-707,-368,274,
2025,2,27,18,38,43,1090,100,2,186,0,3,648,-806,-390,233,
2025,2,27,18,38,44,1090,100,2,188,0,3,648,-799,-458,309,
2025,2,27,18,38,45,1090,100,2,190,0,3,648,-922,-460,284,
2025,2,27,18,38,46,1090,100,2,192,0,3,648,-1153,-544,458,
2025,2,27,18,38,47,1090,100,2,193,0,3,648,-912,-391,420,
2025,2,27,18,38,48,1090,100,2,195,0,3,648,-872,-397,404,
2025,2,27,18,38,49,1090,100,2,197,0,3,648,-824,-315,414,
2025,2,27,18,38,50,1090,100,2,199,0,3,648,-720,-248,356,
2025,2,27,18,38,51,1100,100,2,201,0,3,648,-721,-225,380,
2025,2,27,18,38,52,1100,100,2,203,0,3,648,-976,-247,332,
2025,2,27,18,38,53,1110,100,2,205,0,3,648,-955,-379,403,
2025,2,27,18,38,54,1110,100,2,207,0,3,648,-1091,-375,355,
2025,2,27,18,38,55,1110,100,2,208,0,3,648,-984,-370,330,
2025,2,27,18,38,56,1120,100,2,210,0,3,648,-820,-310,209,
2025,2,27,18,38,57,1120,100,2,212,0,3,648,-751,-298,258,
2025,2,27,18,38,58,1130,100,2,214,0,3,648,-706,-323,227,
2025,2,27,18,38,59,1130,100,2,216,0,3,648,-686,-265,154,
2025,2,27,18,39,0,1130,100,2,218,0,3,648,-782,-281,209,
2025,2,27,18,39,1,1140,100,2,220,0,3,648,-914,-439,273,
2025,2,27,18,39,2,1140,100,2,222,0,3,648,-989,-553,463,
2025,2,27,18,39,3,1140,100,2,224,0,3,648,-1078,-515,344,
2025,2,27,18,39,4,1140,100,2,225,0,3,648,-894,-484,418,
2025,2,27,18,39,5,1140,100,2,227,0,3,648,-839,-405,398,
2025,2,27,18,39,6,1130,100,2,229,0,3,648,-795,-347,352,
2025,2,27,18,39,7,1130,100,2,231,0,3,648,-665,-298,365,
2025,2,27,18,39,8,1130,100,2,233,0,3,648,-868,-248,249,
2025,2,27,18,39,9,1140,100,2,235,0,3,648,-921,-371,302,
2025,2,27,18,39,10,1140,100,2,237,0,3,648,-1206,-339,260,
2025,2,27,18,39,11,1140,100,2,239,0,3,648,-1057,-343,218,
2025,2,27,18,39,12,1140,100,2,240,0,3,648,-886,-270,193,
2025,2,27,18,39,13,1130,100,2,242,0,3,648,-753,-311,179,
2025,2,27,18,39,14,1130,100,2,244,0,3,648,-753,-291,200,
2025,2,27,18,39,15,1130,100,2,246,0,3,648,-930,-340,259,
2025,2,27,18,39,16,1130,100,2,248,0,3,648,-967,-386,264,
2025,2,27,18,39,17,1120,100,2,250,0,3,648,-992,-359,199,
2025,2,27,18,39,18,1120,100,2,252,0,3,648,-890,-380,246,
2025,2,27,18,39,19,1120,100,2,254,0,3,648,-942,-372,277,
2025,2,27,18,39,20,1120,100,2,255,0,3,648,-978,-390,236,
2025,2,27,18,39,21,1130,100,2,258,0,3,648,-962,-401,238,
2025,2,27,18,39,22,1130,100,2,260,0,3,648,-1018,-344,239,
2025,2,27,18,39,23,1140,100,2,262,0,3,648,-1016,-362,237,
2025,2,27,18,39,24,1150,100,2,264,0,3,648,-1003,-366,300,
2025,2,27,18,39,25,1150,75,2,266,0,3,648,-887,-371,224,
2025,2,27,18,39,26,1160,75,2,268,0,3,648,-937,-381,200,
2025,2,27,18,39,27,1160,75,2,270,0,3,648,-811,-267,173,
2025,2,27,18,39,28,1150,75,2,272,0,3,648,-837,-285,180,
2025,2,27,18,39,29,1150,75,2,274,0,3,648,-743,-246,162,
2025,2,27,18,39,30,1160,75,2,276,0,3,648,-749,-232,128,
2025,2,27,18,39,31,1160,75,2,278,0,3,648,-740,-202,141,
2025,2,27,18,39,32,1160,75,2,280,0,3,648,-684,-241,115,
2025,2,27,18,39,33,1150,75,2,282,0,3,648,-726,-205,166,
2025,2,27,18,39,34,1150,75,2,284,0,3,648,-729,-196,147,
2025,2,27,18,39,35,1150,75,2,286,0,3,648,-730,-284,192,
2025,2,27,18,39,36,1150,75,2,288,0,3,648,-732,-233,169,
2025,2,27,18,39,37,1150,75,2,290,0,3,648,-853,-260,156,
2025,2,27,18,39,38,1150,75,2,292,0,3,648,-923,-228,112,
2025,2,27,18,39,39,1150,75,2,294,0,3,648,-935,-246,114,
2025,2,27,18,39,40,1150,75,2,296,0,3,648,-1022,-296,143,
2025,2,27,18,39,41,1150,100,2,298,0,3,648,-999,-284,123,
2025,2,27,18,39,42,1150,100,2,300,0,3,648,-1094,-281,174,
2025,2,27,18,39,43,1160,100,2,302,0,3,648,-1031,-257,175,
2025,2,27,18,39,44,1160,100,2,304,0,3,648,-1188,-296,192,
2025,2,27,18,39,45,1160,100,2,306,0,3,648,-1121,-309,205,
2025,2,27,18,39,46,1160,100,2,308,0,3,648,-1011,-264,312,
2025,2,27,18,39,47,1160,100,2,310,0,3,648,-985,-329,380,
2025,2,27,18,39,48,1160,100,2,312,0,3,648,-957,-264,319,
2025,2,27,18,39,49,1170,100,2,314,0,3,648,-1000,-273,258,
2025,2,27,18,39,50,1170,100,2,316,0,3,648,-1027,-234,324,
2025,2,27,18,39,51,1180,100,2,318,0,3,648,-1016,-258,283,
2025,2,27,18,39,52,1190,100,2,320,0,3,648,-1018,-277,293,
2025,2,27,18,39,53,1190,100,2,322,0,3,648,-969,-260,323,
2025,2,27,18,39,54,1200,100,2,324,0,3,648,-865,-265,344,
2025,2,27,18,39,55,1200,100,2,327,0,3,648,-755,-227,343,
2025,2,27,18,39,56,1200,100,2,329,0,3,648,-605,-226,287,
2025,2,27,18,39,57,1210,100,2,331,0,3,648,-638,-249,284,
2025,2,27,18,39,58,1210,100,2,333,0,3,648,-581,-274,316,
2025,2,27,18,39,59,1210,100,2,335,0,3,648,-575,-297,236,
2025,2,27,18,40,0,1210,100,2,337,0,3,648,-591,-230,145,
2025,2,27,18,40,1,1210,100,2,339,0,3,648,-555,-265,245,
2025,2,27,18,40,2,1210,100,2,341,0,3,648,-651,-332,284,
2025,2,27,18,40,3,1210,100,2,343,0,3,648,-711,-380,280,
2025,2,27,18,40,4,1210,75,2,345,0,3,648,-833,-360,272,
2025,2,27,18,40,5,1200,75,2,347,0,3,648,-774,-366,301,
2025,2,27,18,40,6,1200,75,2,349,0,3,648,-856,-311,299,
2025,2,27,18,40,7,1190,75,2,351,0,3,648,-771,-401,307,
2025,2,27,18,40,8,1190,75,2,353,0,3,648,-820,-389,291,
2025,2,27,18,40,9,1190,75,2,355,0,3,648,-840,-389,314,
2025,2,27,18,40,10,1190,75,2,357,0,3,648,-901,-433,316,
2025,2,27,18,40,11,1190,75,2,359,0,3,648,-812,-433,410,
2025,2,27,18,40,12,1190,75,2,361,0,3,648,-786,-537,316,
2025,2,27,18,40,13,1190,75,2,363,0,3,648,-886,-518,348,
2025,2,27,18,40,14,1180,75,2,365,0,3,648,-868,-467,330,
2025,2,27,18,40,15,1180,75,2,367,0,3,648,-905,-434,335,
2025,2,27,18,40,16,1180,75,2,369,0,3,648,-924,-511,345,
2025,2,27,18,40,17,1170,75,2,371,0,3,648,-998,-472,319,
2025,2,27,18,40,18,1160,75,2,373,0,3,648,-1004,-419,250,
2025,2,27,18,40,19,1160,75,2,375,0,3,648,-1157,-518,320,
2025,2,27,18,40,20,1160,75,2,377,0,3,648,-1194,-659,421,
2025,2,27,18,40,21,1150,75,2,380,0,3,648,-978,-581,338,
2025,2,27,18,40,22,1150,75,2,382,0,3,648,-1127,-510,220,
2025,2,27,18,40,23,1150,75,2,384,0,3,648,-1035,-480,189,
2025,2,27,18,40,24,1150,75,2,386,0,3,648,-1042,-487,135,
2025,2,27,18,40,25,1150,100,2,388,0,3,648,-922,-386,211,
2025,2,27,18,40,26,1140,100,2,390,0,3,648,-877,-307,204,
2025,2,27,18,40,27,1140,100,2,392,0,3,648,-851,-363,198,
2025,2,27,18,40,28,1140,100,2,394,0,3,648,-777,-355,209,
2025,2,27,18,40,29,1130,100,2,396,0,3,648,-726,-313,203,
2025,2,27,18,40,30,1130,100,2,398,0,3,648,-577,-288,151,
2025,2,27,18,40,31,1140,100,2,400,0,3,648,-610,-313,236,
2025,2,27,18,40,32,1140,100,2,402,0,3,648,-708,-338,228,
2025,2,27,18,40,33,1140,100,2,404,0,3,648,-714,-265,209,
2025,2,27,18,40,34,1140,100,2,406,0,3,648,-710,-307,169,
2025,2,27,18,40,35,1140,100,2,408,0,3,648,-698,-222,129,
2025,2,27,18,40,36,1150,100,2,410,0,3,648,-776,-279,145,
2025,2,27,18,40,37,1150,100,2,412,0,3,648,-737,-215,141,
2025,2,27,18,40,38,1140,100,2,414,0,3,648,-786,-240,166,
2025,2,27,18,40,39,1140,100,2,416,0,3,648,-911,-215,137,
2025,2,27,18,40,40,1140,100,2,418,0,3,648,-865,-212,111,
2025,2,27,18,40,41,1130,75,2,420,0,3,648,-897,-220,128,
2025,2,27,18,40,42,1130,75,2,422,0,3,648,-891,-229,138,
2025,2,27,18,40,43,1130,75,2,424,0,3,648,-1027,-209,185,
2025,2,27,18,40,44,1130,75,2,426,0,3,648,-1096,-254,128,
2025,2,27,18,40,45,1130,75,2,428,0,3,648,-1015,-256,116,
2025,2,27,18,40,46,1130,100,2,430,0,3,648,-1039,-242,133,
2025,2,27,18,40,47,1130,100,2,433,0,3,648,-1034,-281,168,
2025,2,27,18,40,48,1140,100,2,435,0,3,648,-1065,-241,116,
2025,2,27,18,40,49,1140,100,2,437,0,3,648,-1295,-311,117,
2025,2,27,18,40,50,1140,100,2,439,0,3,648,-1248,-326,134,
2025,2,27,18,40,51,1140,100,2,441,0,3,648,-1099,-337,156,
2025,2,27,18,40,52,1140,100,2,443,0,3,648,-1102,-362,203,
2025,2,27,18,40,52,1140,100,2,445,0,3,648,-1102,-362,203,
2025,2,27,18,40,53,1140,100,2,447,0,3,648,-1014,-263,271,
2025,2,27,18,40,54,1130,75,2,449,0,3,648,-974,-310,334,
2025,2,27,18,40,55,1130,75,2,451,0,3,648,-987,-237,311,
2025,2,27,18,40,56,1130,75,2,453,0,3,648,-1022,-328,304,
2025,2,27,18,40,57,1130,75,2,455,0,3,648,-1069,-258,270,
2025,2,27,18,40,58,1120,100,2,457,0,3,648,-975,-241,342,
2025,2,27,18,40,59,1120,100,2,459,0,3,648,-868,-204,321,
2025,2,27,18,41,0,1110,100,2,461,0,3,648,-862,-265,309,
2025,2,27,18,41,1,1110,100,2,463,0,3,648,-969,-198,317,
2025,2,27,18,41,2,1120,100,2,465,0,3,648,-987,-259,153,
2025,2,27,18,41,3,1120,75,2,467,0,3,648,-899,-337,136,
2025,2,27,18,41,4,1130,75,2,469,0,3,648,-933,-246,316,
2025,2,27,18,41,5,1130,75,2,471,0,3,648,-993,-294,253,
2025,2,27,18,41,6,1130,75,2,473,0,3,648,-907,-345,257,
2025,2,27,18,41,7,1130,75,2,476,0,3,648,-913,-274,277,
2025,2,27,18,41,8,1130,50,0,476,0,3,648,-934,-300,214,
2025,2,27,18,41,9,1130,50,0,476,0,3,648,-734,-327,399,
2025,2,27,18,41,10,1130,50,0,476,0,3,648,-766,-494,236,
2025,2,27,18,41,11,1130,50,0,476,0,3,648,-905,-420,291,
2025,2,27,18,41,12,1120,75,1,476,0,3,648,-934,-291,178,
2025,2,27,18,41,13,1120,50,0,476,0,3,648,-935,-311,187,
2025,2,27,18,41,14,1120,50,0,476,0,3,648,-941,-281,145,
2025,2,27,18,41,15,1120,50,0,476,0,3,648,-949,-277,129,
2025,2,27,18,41,16,1110,50,0,476,0,3,648,-943,-291,163,
2025,2,27,18,41,17,1110,50,0,476,0,3,648,-947,-262,261,
2025,2,27,18,41,18,1110,50,0,476,0,3,648,-848,-483,209,
2025,2,27,18,41,19,1110,50,0,476,0,3,589,-953,-300,162,
2025,2,27,18,41,20,1110,50,0,476,0,3,589,-934,-281,187,
2025,2,27,18,41,21,1110,50,0,476,0,3,589,-930,-311,189,
2025,2,27,18,41,22,1110,50,0,476,0,3,589,-935,-297,185,
2025,2,27,18,41,23,1110,50,0,476,0,3,589,-945,-288,170,
2025,2,27,18,41,24,1100,50,0,476,0,3,589,-943,-297,162,
2025,2,27,18,41,25,1100,50,0,476,0,3,589,-936,-300,183,
2025,2,27,18,41,26,1100,50,0,476,0,3,589,-933,-296,177,
2025,2,27,18,41,27,1100,50,0,476,0,3,589,-940,-294,184,
2025,2,27,18,41,28,1100,50,0,476,0,3,589,-937,-295,189,
2025,2,27,18,41,29,1100,75,0,476,0,3,589,-937,-297,190,
2025,2,27,18,41,30,1100,50,0,476,0,3,589,-935,-303,174,
2025,2,27,18,41,31,1110,50,0,476,0,3,581,-937,-300,169,
2025,2,27,18,41,32,1100,75,0,476,0,3,573,-937,-298,178,
2025,2,27,18,41,33,1080,100,0,476,0,3,569,-929,-303,199,
2025,2,27,18,41,34,1060,100,0,476,0,3,567,-931,-316,190,
2025,2,27,18,41,35,1050,100,0,476,0,3,566,-930,-327,184,
2025,2,27,18,41,36,1040,100,0,476,0,3,565,-959,-329,191,
2025,2,27,18,41,37,1020,100,0,476,0,3,564,-960,-303,157,
2025,2,27,18,41,38,1010,100,0,476,0,3,564,-919,-334,227,
2025,2,27,18,41,39,1000,50,0,476,0,3,565,-908,-342,217,
2025,2,27,18,41,40,990,50,0,476,0,3,565,-917,-332,192,
2025,2,27,18,41,41,980,50,0,476,0,3,566,-924,-348,173,
2025,2,27,18,41,42,970,75,0,476,0,3,566,-915,-323,164,
2025,2,27,18,41,43,970,100,0,476,0,3,567,-983,-275,291,
2025,2,27,18,41,44,960,75,0,476,0,3,567,-931,-302,171,
2025,2,27,18,41,45,960,75,0,476,0,3,567,-824,-476,235,
2025,2,27,18,41,46,960,75,0,476,0,3,567,-867,-451,227,
2025,2,27,18,41,47,950,75,0,476,0,3,567,-890,-298,152,
2025,2,27,18,41,48,950,50,0,476,0,3,567,-914,-400,228,
2025,2,27,18,41,49,950,50,0,476,0,3,567,-883,-388,209,
2025,2,27,18,41,50,950,50,0,476,0,3,567,-798,-608,394,
2025,2,27,18,41,51,950,50,0,476,0,3,567,-843,-516,370,
2025,2,27,18,41,52,950,50,1,476,0,3,567,-789,-529,400,
2025,2,27,18,41,53,950,75,1,476,0,3,567,-687,-508,504,
2025,2,27,18,41,54,950,75,1,476,0,3,567,-801,-457,375,
2025,2,27,18,41,55,950,75,1,476,0,3,567,-851,-401,310,
2025,2,27,18,41,56,950,50,0,476,0,3,567,-944,-348,193,
2025,2,27,18,41,57,950,25,0,476,0,3,567,-924,-332,133,
2025,2,27,18,41,58,950,25,0,476,0,3,567,-917,-313,121,
2025,2,27,18,41,59,960,75,0,476,0,3,567,-929,-314,119,
2025,2,27,18,42,0,960,50,0,476,0,3,567,-918,-314,117,
2025,2,27,18,42,1,970,50,0,476,0,3,567,-651,-335,305,
2025,2,27,18,42,2,970,50,0,476,0,3,567,-870,-408,156,
2025,2,27,18,42,3,980,50,0,476,0,3,567,-852,-241,249,
2025,2,27,18,42,4,980,75,1,476,0,3,567,-937,-279,181,
2025,2,27,18,42,5,980,75,1,476,0,3,567,-917,-406,290,
2025,2,27,18,42,6,980,75,1,476,0,3,567,-846,-300,255,
2025,2,27,18,42,7,980,75,1,476,0,3,567,-803,-256,281,
2025,2,27,18,42,8,980,75,1,476,0,3,567,-908,-373,191,
2025,2,27,18,42,9,980,75,1,476,0,3,567,-809,-365,112,
2025,2,27,18,42,10,980,75,1,476,0,3,567,-925,-310,170,
2025,2,27,18,42,11,970,75,1,476,0,3,567,-1060,-384,195,
2025,2,27,18,42,12,970,75,1,476,0,3,567,41,-476,433,
2025,2,27,18,42,13,970,75,1,476,0,3,567,-983,-1116,501,
2025,2,27,18,42,14,980,25,0,476,0,3,567,-1071,-1634,1059,
2025,2,27,18,42,15,980,75,1,476,0,3,567,54,-573,350,
2025,2,27,18,42,16,980,75,3,476,3,3,567,-373,-42,1,
2025,2,27,18,42,17,980,75,3,476,6,3,567,16,-721,585,
2025,2,27,18,42,18,980,75,3,476,8,3,567,-904,-1533,789,
2025,2,27,18,42,19,980,75,3,476,11,3,567,-869,-1055,693,
2025,2,27,18,42,20,980,75,3,476,14,3,567,351,-360,160,
2025,2,27,18,42,21,980,100,3,476,17,3,567,-310,-443,196,
2025,2,27,18,42,22,990,100,3,476,20,3,567,-198,-1169,922,
2025,2,27,18,42,23,990,100,3,476,22,3,567,-327,-1348,687,
2025,2,27,18,42,24,990,100,3,476,25,3,567,-237,-336,414,
2025,2,27,18,42,25,970,50,3,476,28,3,567,136,-647,366,
2025,2,27,18,42,26,980,25,3,476,31,3,567,-488,-1038,545,
2025,2,27,18,42,27,1020,0,3,476,33,3,567,-800,-1481,774,
2025,2,27,18,42,28,1040,0,3,476,36,3,567,235,-476,262,
2025,2,27,18,42,29,1070,0,3,476,39,3,567,-489,-478,113,
2025,2,27,18,42,30,1090,0,3,476,42,3,567,-881,-1714,976,
2025,2,27,18,42,31,1100,0,3,476,44,3,567,201,-233,230,
2025,2,27,18,42,32,1120,0,3,476,47,3,567,-328,-766,298,
2025,2,27,18,42,33,1130,0,3,476,50,3,567,-722,-1815,1060,
2025,2,27,18,42,34,1140,0,3,476,52,3,567,296,-286,158,
2025,2,27,18,42,35,1150,0,3,476,55,3,567,-349,-482,93,
2025,2,27,18,42,36,1160,0,3,476,58,3,567,-619,-1543,1062,
2025,2,27,18,42,37,1170,0,3,476,60,3,567,78,-496,353,
2025,2,27,18,42,38,1180,0,3,476,63,3,567,-286,-291,-7,
2025,2,27,18,42,39,1190,0,3,476,66,3,567,-657,-1349,888,
2025,2,27,18,42,40,1200,0,3,476,68,3,567,54,-610,268,
2025,2,27,18,42,41,1210,0,3,476,71,3,567,-330,-639,156,
2025,2,27,18,42,42,1220,0,3,476,74,3,567,-499,-1483,987,
2025,2,27,18,42,43,1230,0,3,476,76,3,567,232,-376,240,
2025,2,27,18,42,44,1240,0,3,476,79,3,567,-342,-305,87,
2025,2,27,18,42,45,1250,0,3,476,82,3,567,-507,-1533,819,
2025,2,27,18,42,46,1260,0,3,476,84,3,567,46,-567,388,
2025,2,27,18,42,47,1260,25,3,476,87,3,567,-308,-658,307,
2025,2,27,18,42,48,1270,25,3,476,90,3,567,-693,-1576,881,
2025,2,27,18,42,49,1270,25,3,476,92,3,567,84,-175,96,
2025,2,27,18,42,50,1280,25,3,476,95,3,567,-414,-897,442,
2025,2,27,18,42,51,1290,25,3,476,98,3,567,-645,-1050,480,
2025,2,27,18,42,52,1300,25,3,476,100,3,567,167,-399,165,
2025,2,27,18,42,53,1300,25,3,476,103,3,567,-611,-1372,603,
2025,2,27,18,42,54,1310,25,3,476,105,3,567,-360,-174,80,
2025,2,27,18,42,55,1310,25,3,476,108,3,567,-2,-714,470,
2025,2,27,18,42,56,1310,25,3,476,111,3,567,-512,-1923,1178,
2025,2,27,18,42,57,1320,25,3,476,113,3,567,-382,-252,-3,
2025,2,27,18,42,58,1320,25,3,476,116,3,567,-448,-1159,721,
2025,2,27,18,42,59,1320,25,3,476,119,3,567,-58,-1062,553,
2025,2,27,18,43,0,1330,25,3,476,121,3,567,-381,-544,136,
2025,2,27,18,43,1,1340,25,3,476,124,3,567,-799,-1743,927,
2025,2,27,18,43,2,1350,25,3,476,126,3,567,112,-281,211,
2025,2,27,18,43,3,1350,25,3,476,129,3,567,-428,-842,386,
2025,2,27,18,43,4,1360,25,3,476,132,3,567,-676,-1766,330,
2025,2,27,18,43,5,1370,25,3,476,134,3,567,187,-570,232,
2025,2,27,18,43,6,1370,25,3,476,137,3,567,-660,-1356,702,
2025,2,27,18,43,7,1380,25,3,476,139,3,567,-448,-279,136,
2025,2,27,18,43,8,1380,50,3,476,142,3,567,22,-592,441,
2025,2,27,18,43,9,1380,50,3,476,145,3,567,-254,-1603,763,
2025,2,27,18,43,10,1370,25,3,476,147,3,567,-400,-293,-13,
2025,2,27,18,43,11,1370,25,3,476,150,3,567,-721,-1461,1005,
2025,2,27,18,43,12,1370,25,3,476,152,3,567,91,-583,241,
2025,2,27,18,43,13,1370,25,3,476,155,3,567,-430,-448,152,
2025,2,27,18,43,14,1380,25,3,476,158,3,567,-819,-1770,828,
2025,2,27,18,43,15,1380,25,3,476,160,3,567,216,-563,267,
2025,2,27,18,43,16,1390,25,3,476,163,3,567,-865,-1335,856,
2025,2,27,18,43,17,1390,25,3,476,165,3,567,-498,-254,141,
2025,2,27,18,43,18,1400,50,3,476,168,3,567,-11,-625,399,
2025,2,27,18,43,19,1400,50,3,476,171,3,567,-643,-1611,770,
2025,2,27,18,43,20,1400,50,3,476,173,3,567,-333,-279,0,
2025,2,27,18,43,21,1400,50,3,476,176,3,567,-862,-1583,840,
2025,2,27,18,43,22,1410,50,3,476,178,3,567,181,-272,266,
2025,2,27,18,43,23,1410,50,3,476,181,3,567,-469,-611,325,
2025,2,27,18,43,24,1410,50,3,476,184,3,567,-422,-1098,579,
2025,2,27,18,43,25,1420,50,3,476,186,3,567,282,-300,195,
2025,2,27,18,43,26,1420,50,3,476,189,3,567,-772,-1778,804,
2025,2,27,18,43,27,1420,50,3,476,191,3,567,-481,-92,-18,
2025,2,27,18,43,28,1430,50,3,476,194,3,567,-143,-650,465,
2025,2,27,18,43,29,1430,50,3,476,197,3,567,-3,-1380,454,
2025,2,27,18,43,30,1430,50,3,476,199,3,567,-394,-317,69,
2025,2,27,18,43,31,1420,50,3,476,202,3,567,-593,-1481,1106,
2025,2,27,18,43,32,1420,50,3,476,204,3,567,166,-420,299,
2025,2,27,18,43,33,1410,50,3,476,207,3,567,-378,-938,472,
2025,2,27,18,43,34,1410,50,3,476,210,3,567,-599,-658,568,
2025,2,27,18,43,35,1400,50,3,476,212,3,567,226,-535,336,
2025,2,27,18,43,36,1400,50,3,476,215,3,567,-449,-1953,877,
2025,2,27,18,43,37,1390,50,3,476,217,3,567,-303,120,-169,
2025,2,27,18,43,38,1390,50,3,476,220,3,567,-124,-1064,640,
2025,2,27,18,43,39,1390,50,3,476,223,3,567,11,-1265,729,
2025,2,27,18,43,40,1390,50,3,476,225,3,567,-385,-363,47,
2025,2,27,18,43,41,1400,50,3,476,228,3,567,-842,-1598,1079,
2025,2,27,18,43,42,1400,50,3,476,230,3,567,94,-529,345,
2025,2,27,18,43,43,1400,50,3,476,233,3,567,-536,-1206,488,
2025,2,27,18,43,44,1400,50,3,476,236,3,567,-325,41,114,
2025,2,27,18,43,45,1400,75,3,476,238,3,567,-149,-425,431,
2025,2,27,18,43,46,1400,75,3,476,241,3,567,-242,-1592,848,
2025,2,27,18,43,47,1410,75,3,476,243,3,567,-105,-224,-114,
2025,2,27,18,43,48,1410,75,3,476,246,3,567,-601,-980,797,
2025,2,27,18,43,49,1410,75,3,476,248,3,567,141,-412,547,
2025,2,27,18,43,50,1410,75,3,476,251,3,567,-298,-613,286,
2025,2,27,18,43,51,1410,75,3,476,254,3,567,-962,-1667,890,
2025,2,27,18,43,52,1410,75,3,476,256,3,567,278,-190,79,
2025,2,27,18,43,53,1410,75,3,476,259,3,567,-542,-1603,811,
2025,2,27,18,43,54,1420,75,3,476,261,3,567,-461,132,-143,
2025,2,27,18,43,55,1420,75,3,476,264,3,567,-227,-926,656,
2025,2,27,18,43,56,1420,75,3,476,267,3,567,188,-1366,491,
2025,2,27,18,43,57,1420,75,3,476,269,3,567,-427,-484,100,
2025,2,27,18,43,58,1420,75,3,476,272,3,567,-790,-1813,1368,
2025,2,27,18,43,59,1420,75,3,476,274,3,567,318,-226,126,
2025,2,27,18,44,0,1420,75,3,476,277,3,567,-706,-1564,894,
2025,2,27,18,44,1,1430,100,3,476,279,3,567,-361,79,-106,
2025,2,27,18,44,2,1430,100,3,476,282,3,567,-109,-813,488,
2025,2,27,18,44,3,1420,100,3,476,285,3,567,-75,-1497,921,
2025,2,27,18,44,4,1420,100,3,476,287,3,567,-300,-323,28,
2025,2,27,18,44,5,1420,100,3,476,290,3,567,-691,-1765,1002,
2025,2,27,18,44,6,1420,75,3,476,292,3,567,312,-309,272,
2025,2,27,18,44,7,1410,75,3,476,295,3,567,-652,-1380,881,
2025,2,27,18,44,8,1400,75,3,476,298,3,567,-395,-5,29,
2025,2,27,18,44,9,1400,75,3,476,300,3,567,5,-518,317,
2025,2,27,18,44,10,1400,75,3,476,303,3,567,-313,-1755,613,
2025,2,27,18,44,11,1390,75,3,476,305,3,567,-266,-251,-32,
2025,2,27,18,44,12,1390,75,3,476,308,3,567,-772,-1812,1077,
2025,2,27,18,44,12,1390,75,3,476,310,3,567,-772,-1812,1077,
2025,2,27,18,44,13,1390,75,3,476,313,3,567,-677,-1858,768,
2025,2,27,18,44,14,1390,75,3,476,316,3,567,-298,105,-140,
2025,2,27,18,44,15,1390,75,3,476,318,3,567,-269,-897,662,
2025,2,27,18,44,16,1390,75,3,476,321,3,567,5,-499,430,
2025,2,27,18,44,17,1400,75,3,476,323,3,567,-357,-76,893,
2025,2,27,18,44,18,1410,75,3,476,326,3,567,-945,-1129,807,
2025,2,27,18,44,19,1410,75,3,476,328,3,567,433,-423,292,
2025,2,27,18,44,20,1420,75,3,476,331,3,567,-712,-1567,1052,
2025,2,27,18,44,21,1420,75,3,476,333,3,567,-329,133,17,
2025,2,27,18,44,22,1430,75,3,476,336,3,567,89,-461,332,
2025,2,27,18,44,23,1440,50,3,476,339,3,567,-166,-1786,743,
2025,2,27,18,44,24,1450,50,3,476,341,3,567,-245,-110,-156,
2025,2,27,18,44,25,1460,50,3,476,344,3,567,-280,-1192,1040,
2025,2,27,18,44,26,1470,50,3,476,347,3,567,-30,-912,722,
2025,2,27,18,44,27,1480,50,3,476,349,3,567,212,-424,436,
2025,2,27,18,44,28,1480,50,3,476,352,3,567,-577,-1592,1221,
2025,2,27,18,44,29,1490,50,3,476,354,3,567,371,-204,220,
2025,2,27,18,44,30,1500,50,3,476,357,3,567,-513,-1064,467,
2025,2,27,18,44,31,1500,50,3,476,360,3,567,-782,-1271,823,
2025,2,27,18,44,32,1510,75,3,476,362,3,567,386,-138,221,
2025,2,27,18,44,33,1520,75,3,476,365,3,567,-504,-1931,1064,
2025,2,27,18,44,34,1520,75,3,476,367,3,567,-243,268,-274,
2025,2,27,18,44,35,1530,75,3,476,370,3,567,62,-585,419,
2025,2,27,18,44,36,1540,75,3,476,373,3,567,-285,-1695,1121,
2025,2,27,18,44,37,1540,75,3,476,375,3,567,-272,-187,-106,
2025,2,27,18,44,38,1540,75,3,476,378,3,567,-847,-1403,980,
2025,2,27,18,44,39,1550,75,3,476,381,3,567,129,-525,542,
2025,2,27,18,44,40,1550,75,3,476,383,3,567,-306,-602,195,
2025,2,27,18,44,41,1550,75,3,476,386,3,567,-888,-1662,1214,
2025,2,27,18,44,42,1550,75,3,476,388,3,567,510,-205,390,
2025,2,27,18,44,43,1550,75,3,476,391,3,567,-214,-1203,681,
2025,2,27,18,44,44,1550,75,3,476,394,3,567,-296,-100,178,
2025,2,27,18,44,45,1550,75,3,476,396,3,567,223,-353,301,
2025,2,27,18,44,46,1540,75,3,476,399,3,567,-337,-2072,1138,
2025,2,27,18,44,47,1540,75,3,476,401,3,567,-393,-219,6,
2025,2,27,18,44,48,1530,75,3,476,404,3,567,-316,-1249,1016,
2025,2,27,18,44,49,1530,75,3,476,407,3,567,208,-459,546,
2025,2,27,18,44,50,1530,75,3,476,409,3,567,-391,-437,40,
2025,2,27,18,44,51,1540,75,3,476,412,3,567,-1089,-1584,1279,
2025,2,27,18,44,52,1540,75,3,476,414,3,567,419,-291,268,
2025,2,27,18,44,53,1540,75,3,476,417,3,567,-529,-911,368,
2025,2,27,18,44,54,1540,75,3,476,420,3,567,-1023,-1132,983,
2025,2,27,18,44,55,1540,75,3,476,422,3,567,372,-162,243,
2025,2,27,18,44,56,1540,75,3,476,425,3,567,-787,-1980,899,
2025,2,27,18,44,57,1540,100,3,476,428,3,567,-242,69,-248,
2025,2,27,18,44,58,1550,100,3,476,430,3,567,-69,-851,661,
2025,2,27,18,44,59,1550,100,3,476,433,3,567,-284,-1660,1103,
2025,2,27,18,45,0,1550,100,3,476,435,3,567,-211,-29,-220,
2025,2,27,18,45,1,1550,100,3,476,438,3,567,-732,-1000,793,
2025,2,27,18,45,2,1560,100,3,476,441,3,567,16,-947,733,
2025,2,27,18,45,3,1560,100,3,476,443,3,567,-235,-449,-51,
2025,2,27,18,45,4,1560,100,3,476,446,3,567,-1055,-1620,1169,
2025,2,27,18,45,5,1560,100,3,476,448,3,567,13,-364,162,
2025,2,27,18,45,6,1550,100,3,476,451,3,567,-548,-1011,292,
2025,2,27,18,45,7,1550,100,3,476,454,3,567,-650,-1176,865,
2025,2,27,18,45,8,1550,100,3,476,456,3,567,487,-157,265,
2025,2,27,18,45,9,1550,100,3,476,459,3,567,-595,-1326,687,
2025,2,27,18,45,10,1550,100,3,476,462,3,567,-529,-433,318,
2025,2,27,18,45,11,1540,100,3,476,464,3,567,293,-500,247,
2025,2,27,18,45,12,1540,100,3,476,467,3,567,-674,-1857,1210,
2025,2,27,18,45,13,1540,100,3,476,469,3,567,-248,56,-152,
2025,2,27,18,45,14,1540,100,3,476,472,3,567,-287,-1116,982,
2025,2,27,18,45,15,1540,100,3,476,475,3,567,-46,-1351,804,
2025,2,27,18,45,16,1540,100,3,476,477,3,567,-284,-114,-192,
2025,2,27,18,45,17,1540,100,3,476,480,3,567,-460,-1063,732,
2025,2,27,18,45,18,1540,100,3,476,483,3,567,126,-525,625,
2025,2,27,18,45,19,1550,100,3,476,485,3,567,-271,-402,15,
2025,2,27,18,45,20,1550,100,3,476,488,3,567,-594,-1642,1230,
2025,2,27,18,45,21,1550,100,3,476,491,3,567,263,-316,163,
2025,2,27,18,45,22,1560,100,3,476,493,3,567,-269,-654,384,
2025,2,27,18,45,23,1560,100,3,476,496,3,567,-638,-908,794,
2025,2,27,18,45,24,1560,100,3,476,498,3,567,252,-122,109,
2025,2,27,18,45,25,1560,100,3,476,501,3,567,-646,-1503,962,
2025,2,27,18,45,26,1550,100,3,476,504,3,567,-158,-55,-35,
2025,2,27,18,45,27,1550,100,3,476,506,3,567,75,-579,406,
2025,2,27,18,45,28,1550,100,3,476,509,3,567,82,-1609,785,
2025,2,27,18,45,29,1550,100,3,476,511,3,567,-255,48,-200,
2025,2,27,18,45,30,1550,100,3,476,514,3,567,-204,-1209,867,
2025,2,27,18,45,31,1550,100,3,476,517,3,567,54,-650,647,
2025,2,27,18,45,32,1560,100,3,476,519,3,567,-253,-276,143,
2025,2,27,18,45,33,1560,100,3,476,522,3,567,-693,-1501,1216,
2025,2,27,18,45,34,1560,100,3,476,525,3,567,179,-247,270,
2025,2,27,18,45,35,1560,100,3,476,527,3,567,-343,-1084,589,
2025,2,27,18,45,36,1560,100,3,476,530,3,567,-610,-590,1016,
2025,2,27,18,45,37,1560,100,3,476,532,3,567,410,-311,162,
2025,2,27,18,45,38,1550,100,3,476,535,3,567,-538,-1824,925,
2025,2,27,18,45,39,1550,100,3,476,538,3,567,-314,-22,-44,
2025,2,27,18,45,40,1550,100,3,476,540,3,567,328,-284,172,
2025,2,27,18,45,41,1550,100,3,476,543,3,567,-577,-2128,944,
2025,2,27,18,45,42,1550,100,3,476,545,3,567,-166,17,-117,
2025,2,27,18,45,43,1550,100,3,476,548,3,567,-361,-1243,933,
2025,2,27,18,45,44,1550,100,3,476,551,3,567,-40,-809,704,
2025,2,27,18,45,45,1550,100,3,476,553,3,567,-395,-318,19,
2025,2,27,18,45,46,1550,100,3,476,556,3,567,-900,-1717,1080,
2025,2,27,18,45,47,1550,100,3,476,559,3,567,284,-127,213,
2025,2,27,18,45,48,1550,100,3,476,561,3,567,-562,-1167,664,
2025,2,27,18,45,49,1550,100,3,476,564,3,567,-418,-758,613,
2025,2,27,18,45,50,1550,100,3,476,566,3,567,159,-396,322,
2025,2,27,18,45,51,1550,100,3,476,569,3,567,-454,-1912,1170,
2025,2,27,18,45,52,1550,100,3,476,572,3,567,-260,-48,-202,
2025,2,27,18,45,53,1540,100,3,476,574,3,567,-533,-1174,1032,
2025,2,27,18,45,54,1540,100,3,476,577,3,567,-47,-628,570,
2025,2,27,18,45,55,1530,100,3,476,579,3,567,-301,-523,228,
2025,2,27,18,45,56,1530,100,3,476,582,3,567,-883,-1820,1062,
2025,2,27,18,45,57,1540,100,3,476,585,3,567,270,-231,314,
2025,2,27,18,45,58,1540,100,3,476,587,3,567,-364,-1301,635,
2025,2,27,18,45,59,1540,100,3,476,590,3,567,-272,-283,168,
2025,2,27,18,46,0,1540,100,3,476,592,3,567,335,-206,197,
2025,2,27,18,46,1,1530,100,3,476,595,3,567,-631,-1858,1245,
2025,2,27,18,46,2,1530,100,3,476,598,3,567,-182,61,-165,
2025,2,27,18,46,3,1530,100,3,476,600,3,567,-163,-668,974,
2025,2,27,18,46,4,1530,100,3,476,603,3,567,-117,-1355,1145,
2025,2,27,18,46,5,1530,100,3,476,605,3,567,-153,-168,114,
2025,2,27,18,46,6,1540,100,3,476,608,3,567,-534,-1863,1250,
2025,2,27,18,46,7,1540,100,3,476,611,3,567,233,-153,221,
2025,2,27,18,46,8,1540,100,3,476,613,3,567,-299,-544,294,
2025,2,27,18,46,9,1540,100,3,476,616,3,567,-661,-1121,1051,
2025,2,27,18,46,10,1540,100,3,476,618,3,567,367,-309,344,
2025,2,27,18,46,11,1540,100,3,476,621,3,567,-571,-1537,695,
2025,2,27,18,46,12,1540,100,3,476,624,3,567,-338,-157,39,
2025,2,27,18,46,13,1550,100,3,476,626,3,567,122,-570,480,
2025,2,27,18,46,14,1550,100,3,476,629,3,567,-1017,-1857,1215,
2025,2,27,18,46,15,1550,100,3,476,631,3,567,-313,157,-131,
2025,2,27,18,46,16,1540,100,3,476,634,3,567,-575,-1867,1094,
2025,2,27,18,46,17,1550,100,3,476,637,3,567,-254,-1026,845,
2025,2,27,18,46,18,1550,100,3,476,639,3,567,-376,-19,-159,
2025,2,27,18,46,19,1550,100,3,476,642,3,567,-816,-1758,1230,
2025,2,27,18,46,20,1560,100,3,476,645,3,567,-269,-499,584,
2025,2,27,18,46,21,1560,100,3,476,647,3,567,-692,-522,480,
2025,2,27,18,46,22,1560,100,3,476,650,3,567,-754,-381,270,
2025,2,27,18,46,23,1560,100,2,477,652,3,567,-826,-393,350,
2025,2,27,18,46,24,1560,100,2,480,652,3,567,-1049,-362,208,
2025,2,27,18,46,25,1570,100,2,482,652,3,567,-911,-314,141,
2025,2,27,18,46,26,1580,100,2,485,652,3,567,-857,-335,313,
2025,2,27,18,46,27,1580,100,2,488,652,3,567,-1015,-301,261,
2025,2,27,18,46,28,1590,100,2,491,652,3,567,-946,-132,-162,
2025,2,27,18,46,29,1590,100,2,493,652,3,567,-854,-291,-86,
2025,2,27,18,46,30,1590,100,2,495,652,3,567,-804,-504,395,
2025,2,27,18,46,31,1590,100,2,497,652,3,567,-919,-295,171,
2025,2,27,18,46,32,1580,100,2,499,652,3,567,-1035,-394,171,
2025,2,27,18,46,33,1570,75,2,500,652,3,567,-931,-284,56,
2025,2,27,18,46,34,1570,75,2,502,652,3,567,-1103,-409,302,
2025,2,27,18,46,35,1560,75,2,504,652,3,567,-859,-457,258,
2025,2,27,18,46,36,1550,50,2,506,652,3,567,-937,-438,158,
2025,2,27,18,46,37,1540,50,2,508,652,3,567,-890,-321,406,
2025,2,27,18,46,38,1530,50,2,510,652,3,567,-934,-230,281,
2025,2,27,18,46,39,1530,50,2,512,652,3,567,-888,-350,256,
2025,2,27,18,46,40,1520,50,2,513,652,3,567,-891,-435,314,
2025,2,27,18,46,41,1510,50,2,515,652,3,567,-865,-308,306,
2025,2,27,18,46,42,1510,50,2,517,652,3,567,-1116,-411,315,
2025,2,27,18,46,43,1510,50,2,518,652,3,567,-893,-408,219,
2025,2,27,18,46,44,1510,50,2,520,652,3,611,-814,-259,286,
2025,2,27,18,46,45,1500,75,2,521,652,3,611,-835,-440,280,
2025,2,27,18,46,46,1490,75,2,523,652,3,611,-800,-373,228,
2025,2,27,18,46,47,1480,75,2,524,652,3,611,-835,-349,348,
2025,2,27,18,46,48,1480,50,2,526,652,3,611,-809,-351,238,
2025,2,27,18,46,49,1470,50,2,527,652,3,611,-908,-349,355,
2025,2,27,18,46,50,1460,50,2,528,652,3,611,-806,-359,319,
2025,2,27,18,46,51,1460,50,2,529,652,3,611,-958,-420,180,
2025,2,27,18,46,52,1450,50,2,531,652,3,611,-821,-362,333,
2025,2,27,18,46,53,1440,50,2,532,652,3,611,-896,-462,307,
2025,2,27,18,46,54,1430,50,2,533,652,3,611,-893,-441,291,
2025,2,27,18,46,55,1410,50,2,534,652,3,611,-830,-196,296,
2025,2,27,18,46,56,1400,50,2,536,652,3,611,-896,-376,152,
2025,2,27,18,46,57,1400,50,2,537,652,3,611,-1062,-384,278,
2025,2,27,18,46,58,1390,50,2,538,652,3,611,-896,-276,230,
2025,2,27,18,46,59,1380,50,2,539,652,3,626,-840,-275,185,
2025,2,27,18,47,0,1370,50,2,541,652,3,626,-824,-264,193,
2025,2,27,18,47,1,1360,75,1,542,652,3,626,-1116,-284,211,
2025,2,27,18,47,2,1360,75,1,542,652,3,626,-891,-344,176,
2025,2,27,18,47,3,1350,75,1,542,652,3,626,-847,-275,322,
2025,2,27,18,47,4,1350,75,1,542,652,3,626,-896,-302,120,
2025,2,27,18,47,5,1340,75,1,542,652,3,626,-952,-188,221,
2025,2,27,18,47,6,1340,75,0,542,652,3,633,-919,-249,146,
2025,2,27,18,47,7,1330,75,0,542,652,3,683,-969,-143,247,
2025,2,27,18,47,8,1320,75,0,542,652,3,683,-877,-284,163,
2025,2,27,18,47,9,1320,75,0,542,652,3,683,-1004,-387,212,
2025,2,27,18,47,10,1310,75,0,542,652,3,715,-1004,-339,310,
2025,2,27,18,47,11,1300,75,0,542,652,3,715,-891,-414,206,
2025,2,27,18,47,12,1300,75,0,542,652,3,715,-883,-332,312,
2025,2,27,18,47,12,1290,75,0,542,652,3,700,-883,-332,312,
2025,2,27,18,47,13,1280,75,0,542,652,3,684,-897,-228,278,
2025,2,27,18,47,14,1280,75,0,542,652,3,672,-935,-330,186,
2025,2,27,18,47,15,1280,75,0,542,652,3,665,-973,-589,295,
2025,2,27,18,47,16,1270,75,0,542,652,3,659,-853,-410,360,
2025,2,27,18,47,17,1270,75,0,542,652,3,654,-1019,-426,263,
2025,2,27,18,47,18,1260,100,1,542,652,3,649,-860,-335,345,
2025,2,27,18,47,19,1260,100,1,542,652,3,649,-876,-423,217,
2025,2,27,18,47,20,1260,100,1,542,652,3,649,-812,-321,386,
2025,2,27,18,47,21,1250,100,1,542,652,3,649,-880,-441,192,
2025,2,27,18,47,22,1250,100,1,542,652,3,649,-854,-283,347,
2025,2,27,18,47,23,1250,100,1,542,652,3,649,-918,-439,188,
2025,2,27,18,47,24,1250,100,1,542,652,3,649,-995,-241,209,
2025,2,27,18,47,25,1250,100,1,542,652,3,649,-819,-544,334,
2025,2,27,18,47,26,1250,100,1,542,652,3,649,-908,-428,224,
2025,2,27,18,47,27,1250,100,1,542,652,3,649,-868,-417,309,
2025,2,27,18,47,28,1240,100,1,542,652,3,649,-606,-621,562,
2025,2,27,18,47,29,1240,100,1,542,652,3,649,-754,-635,403,
2025,2,27,18,47,30,1240,75,0,542,652,3,649,-974,-228,238,
2025,2,27,18,47,31,1240,75,0,542,652,3,649,-1021,-340,569,
2025,2,27,18,47,32,1240,75,0,542,652,3,649,-77,45,925,
2025,2,27,18,47,33,1240,75,0,542,652,3,649,-77,-296,917,
2025,2,27,18,47,34,1230,75,0,542,652,3,649,-149,-527,794,
2025,2,27,18,47,35,1230,75,0,542,652,3,649,-354,-511,772,
2025,2,27,18,47,36,1230,75,0,542,652,3,649,-666,-513,534,
2025,2,27,18,47,37,1230,100,1,542,652,3,649,-824,-415,292,
2025,2,27,18,47,38,1230,75,0,542,652,3,649,-852,-424,284,
2025,2,27,18,47,39,1230,75,0,542,652,3,649,-858,-413,264,
2025,2,27,18,47,40,1240,100,0,542,652,3,649,-922,-403,284,
2025,2,27,18,47,41,1240,100,0,542,652,3,648,-834,-425,335,
2025,2,27,18,47,42,1240,100,0,542,652,3,648,-843,-419,307,
2025,2,27,18,47,43,1240,100,0,542,652,3,647,-822,-410,300,
2025,2,27,18,47,44,1240,100,0,542,652,3,647,-874,-405,302,
2025,2,27,18,47,45,1250,100,0,542,652,3,647,-966,-390,171,
2025,2,27,18,47,46,1250,100,0,542,652,3,647,-921,-327,193,
2025,2,27,18,47,47,1260,100,0,542,652,3,648,-875,-315,207,
2025,2,27,18,47,48,1260,100,0,542,652,3,651,-924,-358,308,
2025,2,27,18,47,49,1260,100,0,542,652,3,651,-912,-319,302,
2025,2,27,18,47,50,1260,75,0,542,652,3,651,-895,-317,291,
2025,2,27,18,47,51,1260,75,0,542,652,3,651,-903,-330,283,
2025,2,27,18,47,52,1260,75,0,542,652,3,651,-907,-314,279,
2025,2,27,18,47,53,1250,75,0,542,652,3,651,-902,-319,287,
2025,2,27,18,47,54,1250,100,0,542,652,3,651,-926,-283,250,
2025,2,27,18,47,55,1240,100,0,542,652,3,651,-932,-289,255,
2025,2,27,18,47,56,1230,100,0,542,652,3,651,-893,-337,259,
2025,2,27,18,47,57,1230,100,0,542,652,3,651,-914,-340,249,
2025,2,27,18,47,59,1220,100,0,542,652,3,651,-911,-328,272,
2025,2,27,18,48,0,1210,100,0,542,652,3,651,-908,-329,259,
2025,2,27,18,48,1,1200,100,0,542,652,3,651,-909,-331,261,
2025,2,27,18,48,2,1190,100,0,542,652,3,651,-907,-324,258,
2025,2,27,18,48,3,1190,100,0,542,652,3,651,-934,-253,244,
2025,2,27,18,48,4,1190,100,0,542,652,3,651,-957,-174,270,
2025,2,27,18,48,5,1190,100,0,542,652,3,651,-897,-230,175,
2025,2,27,18,48,6,1190,100,0,542,652,3,651,-921,-336,178,
2025,2,27,18,48,7,1180,100,0,542,652,3,651,-927,-351,183,
2025,2,27,18,48,8,1180,75,0,542,652,3,651,-925,-190,226,
2025,2,27,18,48,9,1180,75,0,542,652,3,651,-926,-223,278,
2025,2,27,18,48,10,1180,100,0,542,652,3,651,-982,-219,373,
2025,2,27,18,48,11,1190,100,0,542,652,3,651,-904,-274,277,
2025,2,27,18,48,12,1190,100,0,542,652,3,658,-929,-267,294,
2025,2,27,18,48,13,1190,100,0,542,652,3,664,-895,-250,241,
2025,2,27,18,48,14,1190,100,0,542,652,3,670,-933,-251,246,
2025,2,27,18,48,15,1180,100,0,542,652,3,674,-892,-262,220,
2025,2,27,18,48,16,1180,75,0,542,652,3,679,-907,-263,194,
2025,2,27,18,48,17,1180,75,0,542,652,3,681,-909,-262,151,
2025,2,27,18,48,18,1170,75,0,542,652,3,684,-962,-283,203,
