year,month,day,hour,minute,second,HR,HR_conf,Activity,walk_stp,run_stp,scd,r,Acc_X,Acc_Y,Acc_Z,Unnamed: 11
2025,2,26,16,52,55,600,0,1,0,0,2,0,924,259,291,
2025,2,26,16,52,56,600,0,0,0,0,2,0,929,207,300,
2025,2,26,16,52,57,590,0,0,0,0,3,0,939,222,281,
2025,2,26,16,52,58,590,0,0,0,0,3,0,939,244,288,
2025,2,26,16,52,59,600,0,0,0,0,3,0,928,242,255,
2025,2,26,16,53,0,650,0,0,0,0,3,0,932,257,286,
2025,2,26,16,53,1,710,0,0,0,0,3,0,923,250,295,
2025,2,26,16,53,2,770,0,0,0,0,3,0,925,229,290,
2025,2,26,16,53,3,820,50,0,0,0,3,0,923,271,298,
2025,2,26,16,53,4,820,50,0,0,0,3,0,943,261,304,
2025,2,26,16,53,5,820,50,0,0,0,3,0,929,239,311,
2025,2,26,16,53,6,850,50,0,0,0,3,0,925,257,296,
2025,2,26,16,53,7,920,100,0,0,0,3,0,916,272,290,
2025,2,26,16,53,8,950,100,0,0,0,3,0,932,267,282,
2025,2,26,16,53,9,940,100,0,0,0,3,0,925,250,281,
2025,2,26,16,53,10,920,100,0,0,0,3,0,935,238,286,
2025,2,26,16,53,11,910,100,0,0,0,3,0,925,257,282,
2025,2,26,16,53,12,900,100,0,0,0,3,0,926,266,293,
2025,2,26,16,53,13,890,100,0,0,0,3,0,922,261,292,
2025,2,26,16,53,14,890,100,0,0,0,3,0,907,272,296,
2025,2,26,16,53,15,890,100,0,0,0,3,0,953,269,291,
2025,2,26,16,53,16,890,100,0,0,0,3,584,938,203,307,
2025,2,26,16,53,17,890,100,0,0,0,3,584,917,226,340,
2025,2,26,16,53,18,890,100,0,0,0,3,584,927,265,325,
2025,2,26,16,53,19,890,100,0,0,0,3,584,964,211,310,
2025,2,26,16,53,20,890,100,0,0,0,3,588,924,239,310,
2025,2,26,16,53,21,900,100,0,0,0,3,592,921,220,319,
2025,2,26,16,53,22,900,100,0,0,0,3,598,898,302,290,
2025,2,26,16,53,23,900,100,0,0,0,3,611,929,271,311,
2025,2,26,16,53,24,900,100,0,0,0,3,617,960,215,226,
2025,2,26,16,53,25,910,75,0,0,0,3,622,912,277,284,
2025,2,26,16,53,26,910,75,0,0,0,3,622,835,236,341,
2025,2,26,16,53,27,910,75,0,0,0,3,622,889,328,327,
2025,2,26,16,53,28,910,75,0,0,0,3,622,590,317,590,
2025,2,26,16,53,29,910,75,0,0,0,3,622,824,386,471,
2025,2,26,16,53,30,910,75,0,0,0,3,622,741,413,513,
2025,2,26,16,53,31,910,75,0,0,0,3,622,751,416,496,
2025,2,26,16,53,32,910,75,0,0,0,3,622,744,408,520,
2025,2,26,16,53,33,910,75,0,0,0,3,622,745,461,644,
2025,2,26,16,53,34,910,75,0,0,0,3,622,738,473,619,
2025,2,26,16,53,35,910,75,0,0,0,3,622,676,423,610,
2025,2,26,16,53,36,900,75,0,0,0,3,622,664,471,560,
2025,2,26,16,53,37,900,100,1,0,0,3,622,642,394,626,
2025,2,26,16,53,38,900,100,1,0,0,3,622,1075,341,335,
2025,2,26,16,53,39,900,100,1,0,0,3,622,869,172,239,
2025,2,26,16,53,40,900,100,1,0,0,3,622,1025,261,198,
2025,2,26,16,53,41,900,100,1,0,0,3,622,736,269,350,
2025,2,26,16,53,42,900,100,1,0,0,3,622,1171,302,400,
2025,2,26,16,53,43,900,100,2,0,0,3,622,699,386,110,
2025,2,26,16,53,44,900,100,2,1,0,3,622,953,211,257,
2025,2,26,16,53,45,910,100,2,3,0,3,622,1048,291,485,
2025,2,26,16,53,46,910,100,1,4,0,3,622,653,454,277,
2025,2,26,16,53,47,910,100,2,5,0,3,622,903,268,461,
2025,2,26,16,53,48,920,100,2,7,0,3,622,1059,378,347,
2025,2,26,16,53,49,930,100,2,8,0,3,622,698,186,170,
2025,2,26,16,53,50,950,75,2,10,0,3,622,1008,319,273,
2025,2,26,16,53,51,960,75,2,12,0,3,622,1329,352,438,
2025,2,26,16,53,52,960,75,2,13,0,3,622,714,372,332,
2025,2,26,16,53,53,970,75,2,15,0,3,622,866,250,297,
2025,2,26,16,53,54,980,75,2,17,0,3,622,824,205,394,
2025,2,26,16,53,55,990,75,2,19,0,3,622,1013,230,166,
2025,2,26,16,53,56,1000,50,2,20,0,3,622,662,106,143,
2025,2,26,16,53,57,1010,50,2,22,0,3,622,1009,298,244,
2025,2,26,16,53,58,1020,50,2,24,0,3,622,1382,195,500,
2025,2,26,16,53,59,1020,50,2,25,0,3,622,848,326,352,
2025,2,26,16,54,0,1030,50,2,27,0,3,622,730,308,272,
2025,2,26,16,54,1,1040,75,2,29,0,3,622,1063,117,302,
2025,2,26,16,54,2,1040,75,2,30,0,3,622,997,256,192,
2025,2,26,16,54,3,1040,75,2,32,0,3,622,710,161,142,
2025,2,26,16,54,4,1050,75,2,34,0,3,622,877,212,300,
2025,2,26,16,54,5,1050,75,2,36,0,3,622,1201,381,462,
2025,2,26,16,54,6,1040,75,2,37,0,3,622,1009,289,417,
2025,2,26,16,54,7,1040,75,2,39,0,3,622,560,250,266,
2025,2,26,16,54,8,1040,75,2,41,0,3,622,910,90,255,
2025,2,26,16,54,9,1040,75,2,43,0,3,622,1223,392,506,
2025,2,26,16,54,10,1030,75,2,44,0,3,622,772,284,184,
2025,2,26,16,54,11,1030,75,2,46,0,3,622,710,170,186,
2025,2,26,16,54,12,1030,75,2,48,0,3,622,934,339,248,
2025,2,26,16,54,13,1020,75,2,49,0,3,622,1243,286,493,
2025,2,26,16,54,14,1020,75,2,51,0,3,622,624,366,198,
2025,2,26,16,54,15,1020,75,2,53,0,3,622,1066,174,166,
2025,2,26,16,54,16,1010,75,2,55,0,3,622,1204,336,652,
2025,2,26,16,54,17,1010,75,2,56,0,3,622,859,231,129,
2025,2,26,16,54,18,1000,75,2,58,0,3,622,769,118,168,
2025,2,26,16,54,19,1000,75,2,60,0,3,622,964,269,290,
2025,2,26,16,54,20,990,75,2,62,0,3,622,1111,308,424,
2025,2,26,16,54,21,990,75,2,63,0,3,622,576,284,137,
2025,2,26,16,54,22,990,75,2,65,0,3,622,960,106,172,
2025,2,26,16,54,23,980,75,2,67,0,3,622,1270,382,416,
2025,2,26,16,54,24,980,75,2,68,0,3,622,727,231,146,
2025,2,26,16,54,25,980,75,2,70,0,3,622,946,353,267,
2025,2,26,16,54,26,980,75,2,72,0,3,622,1307,290,453,
2025,2,26,16,54,27,990,75,2,73,0,3,622,636,435,268,
2025,2,26,16,54,28,990,75,2,75,0,3,622,627,175,241,
2025,2,26,16,54,29,990,75,2,77,0,3,622,1019,328,466,
2025,2,26,16,54,30,980,50,2,79,0,3,622,895,187,139,
2025,2,26,16,54,31,970,50,2,80,0,3,622,636,176,67,
2025,2,26,16,54,32,970,50,2,82,0,3,622,1078,233,251,
2025,2,26,16,54,33,970,50,2,84,0,3,622,1259,291,427,
2025,2,26,16,54,34,970,50,2,85,0,3,622,603,412,324,
2025,2,26,16,54,35,970,75,2,87,0,3,622,834,87,297,
2025,2,26,16,54,36,970,75,2,89,0,3,622,873,287,520,
2025,2,26,16,54,37,970,75,2,90,0,3,622,982,254,190,
2025,2,26,16,54,38,980,75,2,92,0,3,622,610,128,135,
2025,2,26,16,54,39,990,50,2,94,0,3,622,1028,360,233,
2025,2,26,16,54,40,1000,50,2,96,0,3,622,1282,180,501,
2025,2,26,16,54,41,1000,50,2,97,0,3,622,511,368,217,
2025,2,26,16,54,42,1010,50,2,99,0,3,622,1053,126,294,
2025,2,26,16,54,43,1010,50,2,101,0,3,622,1358,406,749,
2025,2,26,16,54,44,1010,75,2,102,0,3,622,837,242,168,
2025,2,26,16,54,45,1000,75,2,104,0,3,622,746,187,145,
2025,2,26,16,54,46,1000,75,2,106,0,3,622,1220,319,246,
2025,2,26,16,54,47,1000,75,2,108,0,3,622,1284,303,518,
2025,2,26,16,54,48,1000,75,2,109,0,3,622,663,371,270,
2025,2,26,16,54,49,1000,75,2,111,0,3,622,953,6,234,
2025,2,26,16,54,50,1000,75,2,113,0,3,622,1349,415,706,
2025,2,26,16,54,51,1000,75,2,114,0,3,622,849,264,109,
2025,2,26,16,54,52,1000,75,2,116,0,3,622,774,208,167,
2025,2,26,16,54,53,990,75,2,118,0,3,622,958,149,242,
2025,2,26,16,54,54,990,75,2,120,0,3,622,1214,521,425,
2025,2,26,16,54,55,980,75,2,121,0,3,622,698,315,262,
2025,2,26,16,54,56,980,75,2,123,0,3,622,1021,35,220,
2025,2,26,16,54,57,970,75,2,125,0,3,622,1179,268,336,
2025,2,26,16,54,58,970,75,2,126,0,3,622,802,221,119,
2025,2,26,16,54,59,970,75,2,128,0,3,622,869,254,258,
2025,2,26,16,55,0,980,75,2,130,0,3,622,1195,298,369,
2025,2,26,16,55,1,980,75,2,132,0,3,622,870,415,413,
2025,2,26,16,55,2,980,75,2,133,0,3,622,640,295,245,
2025,2,26,16,55,3,980,75,2,135,0,3,622,934,34,213,
2025,2,26,16,55,4,980,75,2,137,0,3,622,1084,190,203,
2025,2,26,16,55,5,980,75,2,138,0,3,622,645,189,117,
2025,2,26,16,55,6,980,75,2,140,0,3,622,1036,317,243,
2025,2,26,16,55,7,990,75,2,142,0,3,622,1361,272,513,
2025,2,26,16,55,8,990,75,2,144,0,3,622,717,338,254,
2025,2,26,16,55,9,1000,75,2,145,0,3,622,786,221,264,
2025,2,26,16,55,10,1000,75,2,147,0,3,622,887,259,411,
2025,2,26,16,55,11,1000,75,2,149,0,3,622,1050,186,142,
2025,2,26,16,55,12,1000,75,2,150,0,3,622,642,147,102,
2025,2,26,16,55,13,1000,75,2,152,0,3,622,1018,205,320,
2025,2,26,16,55,14,1000,75,2,154,0,3,622,1291,130,467,
2025,2,26,16,55,15,1010,75,2,156,0,3,622,650,365,208,
2025,2,26,16,55,16,1010,75,2,157,0,3,622,861,144,339,
2025,2,26,16,55,17,1010,75,2,159,0,3,622,1115,395,664,
2025,2,26,16,55,18,1020,75,2,161,0,3,622,948,270,134,
2025,2,26,16,55,19,1020,75,2,162,0,3,622,590,131,55,
2025,2,26,16,55,20,1020,75,2,164,0,3,622,1021,57,262,
2025,2,26,16,55,21,1020,75,2,166,0,3,622,1205,172,550,
2025,2,26,16,55,22,1030,75,2,167,0,3,622,560,299,110,
2025,2,26,16,55,23,1030,75,2,169,0,3,622,839,-6,285,
2025,2,26,16,55,24,1040,75,2,171,0,3,622,1057,244,627,
2025,2,26,16,55,25,1040,75,2,173,0,3,622,1008,261,76,
2025,2,26,16,55,26,1040,75,2,174,0,3,622,627,146,81,
2025,2,26,16,55,27,1050,100,2,176,0,3,622,1044,130,253,
2025,2,26,16,55,28,1050,100,2,178,0,3,622,1305,315,470,
2025,2,26,16,55,29,1060,100,2,180,0,3,622,622,405,256,
2025,2,26,16,55,30,1060,100,2,181,0,3,622,723,239,230,
2025,2,26,16,55,31,1060,100,2,183,0,3,622,919,105,341,
2025,2,26,16,55,32,1070,100,2,185,0,3,622,989,293,407,
2025,2,26,16,55,33,1070,100,2,186,0,3,622,617,180,112,
2025,2,26,16,55,34,1080,100,2,188,0,3,622,920,234,278,
2025,2,26,16,55,35,1080,100,2,190,0,3,622,1351,317,428,
2025,2,26,16,55,36,1080,100,2,192,0,3,622,875,392,323,
2025,2,26,16,55,37,1070,100,2,193,0,3,622,668,242,227,
2025,2,26,16,55,38,1070,100,2,195,0,3,622,951,175,361,
2025,2,26,16,55,39,1070,100,2,197,0,3,622,1071,188,150,
2025,2,26,16,55,40,1070,100,2,198,0,3,622,663,125,103,
2025,2,26,16,55,41,1070,100,2,200,0,3,622,1022,223,318,
2025,2,26,16,55,42,1070,100,2,202,0,3,622,1206,343,453,
2025,2,26,16,55,43,1060,75,2,204,0,3,622,640,267,177,
2025,2,26,16,55,44,1060,75,2,205,0,3,622,969,-26,161,
2025,2,26,16,55,45,1050,75,2,207,0,3,622,1169,291,312,
2025,2,26,16,55,46,1050,75,2,209,0,3,622,888,259,61,
2025,2,26,16,55,47,1060,75,2,210,0,3,622,628,74,63,
2025,2,26,16,55,48,1060,100,2,212,0,3,622,847,146,252,
2025,2,26,16,55,49,1050,100,2,214,0,3,622,1186,136,201,
2025,2,26,16,55,50,1050,100,2,216,0,3,622,1540,274,534,
2025,2,26,16,55,51,1050,100,2,217,0,3,622,1186,502,398,
2025,2,26,16,55,52,1050,100,2,219,0,3,622,733,457,249,
2025,2,26,16,55,53,1050,100,2,221,0,3,622,586,251,126,
2025,2,26,16,55,53,1050,100,2,223,0,3,622,586,251,126,
2025,2,26,16,55,54,1050,100,2,225,0,3,622,916,88,250,
2025,2,26,16,55,55,1060,100,2,227,0,3,622,1139,323,434,
2025,2,26,16,55,56,1070,100,2,228,0,3,622,1103,207,237,
2025,2,26,16,55,57,1070,75,2,230,0,3,622,916,298,96,
2025,2,26,16,55,58,1080,75,2,232,0,3,622,741,150,51,
2025,2,26,16,55,59,1080,75,2,234,0,3,622,651,165,112,
2025,2,26,16,56,0,1090,75,2,236,0,3,622,1010,235,325,
2025,2,26,16,56,1,1090,75,2,238,0,3,622,1182,139,231,
2025,2,26,16,56,2,1100,100,2,239,0,3,622,1413,414,511,
2025,2,26,16,56,3,1100,100,2,241,0,3,622,1275,376,467,
2025,2,26,16,56,4,1100,100,2,243,0,3,622,1064,426,436,
2025,2,26,16,56,5,1110,100,2,245,0,3,622,734,393,217,
2025,2,26,16,56,6,1110,100,2,247,0,3,622,605,228,181,
2025,2,26,16,56,7,1110,100,2,249,0,3,622,807,87,321,
2025,2,26,16,56,8,1120,100,2,251,0,3,622,994,173,242,
2025,2,26,16,56,9,1120,100,2,253,0,3,622,1165,483,617,
2025,2,26,16,56,10,1120,100,2,254,0,3,622,1127,225,170,
2025,2,26,16,56,11,1120,100,2,256,0,3,622,1022,283,198,
2025,2,26,16,56,12,1120,100,2,258,0,3,622,724,181,49,
2025,2,26,16,56,13,1120,100,2,260,0,3,622,587,131,94,
2025,2,26,16,56,14,1120,100,2,262,0,3,622,765,166,311,
2025,2,26,16,56,15,1120,100,2,264,0,3,622,1044,196,291,
2025,2,26,16,56,16,1120,100,2,266,0,3,622,1290,317,387,
2025,2,26,16,56,17,1120,100,2,267,0,3,622,1404,338,541,
2025,2,26,16,56,18,1120,100,2,269,0,3,622,1216,445,440,
2025,2,26,16,56,19,1120,100,2,271,0,3,622,1052,417,361,
2025,2,26,16,56,20,1120,100,2,273,0,3,622,732,363,249,
2025,2,26,16,56,21,1120,100,2,275,0,3,622,697,135,244,
2025,2,26,16,56,22,1120,100,2,277,0,3,622,810,-81,208,
2025,2,26,16,56,23,1110,100,2,279,0,3,622,956,261,303,
2025,2,26,16,56,24,1110,100,2,281,0,3,622,1093,374,521,
2025,2,26,16,56,25,1110,100,2,282,0,3,622,1094,266,239,
2025,2,26,16,56,26,1110,100,2,284,0,3,622,939,280,147,
2025,2,26,16,56,27,1110,100,2,286,0,3,622,759,162,99,
2025,2,26,16,56,28,1110,100,2,288,0,3,622,625,68,81,
2025,2,26,16,56,29,1110,100,2,290,0,3,622,828,174,267,
2025,2,26,16,56,30,1110,100,2,292,0,3,622,1072,183,208,
2025,2,26,16,56,31,1110,100,2,294,0,3,622,1370,307,249,
2025,2,26,16,56,32,1110,100,2,295,0,3,622,1491,490,635,
2025,2,26,16,56,33,1120,100,2,297,0,3,622,1186,528,449,
2025,2,26,16,56,34,1120,100,2,299,0,3,622,932,450,310,
2025,2,26,16,56,35,1120,100,2,301,0,3,622,504,247,412,
2025,2,26,16,56,36,1120,100,2,303,0,3,622,591,190,271,
2025,2,26,16,56,37,1130,100,2,305,0,3,622,764,-49,248,
2025,2,26,16,56,38,1120,100,2,306,0,3,622,896,4,124,
2025,2,26,16,56,39,1120,100,2,308,0,3,622,1136,333,606,
2025,2,26,16,56,40,1120,100,2,310,0,3,622,1153,289,250,
2025,2,26,16,56,41,1120,100,2,312,0,3,622,1092,192,160,
2025,2,26,16,56,42,1120,100,2,314,0,3,622,935,313,121,
2025,2,26,16,56,43,1130,100,2,316,0,3,622,664,178,94,
2025,2,26,16,56,44,1130,100,2,318,0,3,622,575,96,106,
2025,2,26,16,56,45,1130,100,2,320,0,3,622,803,188,247,
2025,2,26,16,56,46,1130,100,2,322,0,3,622,1018,134,219,
2025,2,26,16,56,47,1140,100,2,323,0,3,622,1190,223,244,
2025,2,26,16,56,48,1140,100,2,325,0,3,622,1474,291,663,
2025,2,26,16,56,49,1140,100,2,327,0,3,622,1220,317,487,
2025,2,26,16,56,50,1150,100,2,329,0,3,622,1030,401,301,
2025,2,26,16,56,51,1150,100,2,331,0,3,622,795,423,279,
2025,2,26,16,56,52,1150,100,2,333,0,3,622,709,377,249,
2025,2,26,16,56,53,1140,100,2,335,0,3,622,783,-106,228,
2025,2,26,16,56,54,1140,100,2,337,0,3,622,985,-13,308,
2025,2,26,16,56,55,1140,100,2,339,0,3,622,1317,239,563,
2025,2,26,16,56,56,1130,100,2,340,0,3,622,1263,308,372,
2025,2,26,16,56,57,1130,100,2,342,0,3,622,1022,210,215,
2025,2,26,16,56,58,1130,100,2,344,0,3,622,943,254,127,
2025,2,26,16,56,59,1120,100,2,346,0,3,622,775,337,144,
2025,2,26,16,57,0,1120,100,2,348,0,3,622,656,109,106,
2025,2,26,16,57,1,1120,100,2,350,0,3,622,742,232,236,
2025,2,26,16,57,2,1120,100,2,352,0,3,622,1024,209,275,
2025,2,26,16,57,3,1120,100,2,354,0,3,622,1360,229,409,
2025,2,26,16,57,4,1120,100,2,355,0,3,622,1280,280,443,
2025,2,26,16,57,5,1120,100,2,357,0,3,622,1109,437,384,
2025,2,26,16,57,6,1130,100,2,359,0,3,622,744,516,246,
2025,2,26,16,57,7,1130,100,2,361,0,3,622,684,301,267,
2025,2,26,16,57,8,1120,100,2,363,0,3,622,602,-32,327,
2025,2,26,16,57,9,1120,100,2,365,0,3,622,894,-87,196,
2025,2,26,16,57,10,1120,100,2,367,0,3,622,987,351,384,
2025,2,26,16,57,11,1120,100,2,368,0,3,622,1220,282,501,
2025,2,26,16,57,12,1110,100,2,370,0,3,622,1215,277,190,
2025,2,26,16,57,13,1110,100,2,372,0,3,622,1058,279,180,
2025,2,26,16,57,14,1110,100,2,374,0,3,622,812,196,161,
2025,2,26,16,57,15,1110,100,2,376,0,3,622,560,67,81,
2025,2,26,16,57,16,1110,100,2,378,0,3,622,702,163,178,
2025,2,26,16,57,17,1100,100,2,380,0,3,622,877,235,270,
2025,2,26,16,57,18,1100,100,2,382,0,3,622,1150,6,166,
2025,2,26,16,57,19,1100,100,2,384,0,3,622,1321,264,174,
2025,2,26,16,57,20,1110,100,2,385,0,3,622,1331,303,433,
2025,2,26,16,57,21,1120,100,2,387,0,3,622,1194,449,422,
2025,2,26,16,57,22,1120,100,2,389,0,3,622,946,425,332,
2025,2,26,16,57,23,1130,75,2,391,0,3,622,662,295,259,
2025,2,26,16,57,24,1130,75,2,393,0,3,622,635,141,245,
2025,2,26,16,57,25,1130,75,2,395,0,3,622,834,-68,319,
2025,2,26,16,57,26,1130,100,2,397,0,3,622,942,127,286,
2025,2,26,16,57,27,1140,100,2,399,0,3,622,1294,421,575,
2025,2,26,16,57,28,1140,100,2,400,0,3,622,1140,249,207,
2025,2,26,16,57,29,1140,100,2,402,0,3,622,989,265,82,
2025,2,26,16,57,30,1140,100,2,404,0,3,622,808,225,81,
2025,2,26,16,57,31,1150,100,2,406,0,3,622,663,114,45,
2025,2,26,16,57,32,1150,100,2,408,0,3,622,705,106,164,
2025,2,26,16,57,33,1150,100,2,410,0,3,622,1043,267,284,
2025,2,26,16,57,34,1150,100,2,412,0,3,622,1152,-1,197,
2025,2,26,16,57,35,1150,100,2,413,0,3,622,1394,301,359,
2025,2,26,16,57,36,1160,100,2,415,0,3,622,1326,363,447,
2025,2,26,16,57,37,1160,100,2,417,0,3,622,1198,411,397,
2025,2,26,16,57,38,1160,100,2,419,0,3,622,826,323,352,
2025,2,26,16,57,39,1160,100,2,421,0,3,622,669,239,244,
2025,2,26,16,57,40,1160,100,2,423,0,3,622,547,68,199,
2025,2,26,16,57,41,1160,100,2,425,0,3,622,955,-88,270,
2025,2,26,16,57,42,1150,100,2,427,0,3,622,1171,311,504,
2025,2,26,16,57,43,1150,100,2,429,0,3,622,1195,281,245,
2025,2,26,16,57,44,1150,100,2,430,0,3,622,971,209,266,
2025,2,26,16,57,45,1140,100,2,432,0,3,622,655,136,121,
2025,2,26,16,57,46,1140,100,2,434,0,3,622,978,316,343,
2025,2,26,16,57,47,1140,100,2,436,0,3,622,815,132,318,
2025,2,26,16,57,48,1130,100,2,438,0,3,622,1330,203,405,
2025,2,26,16,57,49,1120,100,2,440,0,3,622,913,189,159,
2025,2,26,16,57,50,1120,100,2,442,0,3,622,771,161,196,
2025,2,26,16,57,51,1110,100,2,444,0,3,622,974,231,263,
2025,2,26,16,57,52,1110,100,2,446,0,3,622,997,406,497,
2025,2,26,16,57,53,1110,100,2,447,0,3,622,935,227,295,
2025,2,26,16,57,54,1110,100,2,449,0,3,622,949,243,270,
2025,2,26,16,57,55,1110,100,1,450,0,3,622,928,259,311,
2025,2,26,16,57,56,1110,50,0,450,0,3,622,955,269,285,
2025,2,26,16,57,57,1110,50,0,450,0,3,622,976,223,240,
2025,2,26,16,57,58,1100,50,0,450,0,3,622,943,161,220,
2025,2,26,16,57,59,1100,50,0,450,0,3,622,908,269,319,
2025,2,26,16,58,0,1100,75,0,450,0,3,622,932,221,309,
2025,2,26,16,58,1,1090,100,0,450,0,3,576,925,212,310,
2025,2,26,16,58,2,1090,100,0,450,0,3,576,966,264,231,
2025,2,26,16,58,3,1090,75,0,450,0,3,576,900,128,313,
2025,2,26,16,58,4,1090,75,0,450,0,3,576,883,145,269,
2025,2,26,16,58,5,1090,75,1,450,0,3,576,921,259,272,
2025,2,26,16,58,6,1090,100,0,450,0,3,576,911,225,307,
2025,2,26,16,58,7,1090,75,0,450,0,3,576,907,279,315,
2025,2,26,16,58,8,1090,100,0,450,0,3,576,933,210,250,
2025,2,26,16,58,9,1090,75,0,450,0,3,576,913,259,313,
2025,2,26,16,58,10,1090,100,0,450,0,3,576,960,225,284,
2025,2,26,16,58,11,1090,100,0,450,0,3,571,960,231,239,
2025,2,26,16,58,12,1090,100,0,450,0,3,567,893,261,259,
2025,2,26,16,58,13,1090,75,0,450,0,3,564,993,227,235,
2025,2,26,16,58,14,1090,100,2,451,0,3,561,1020,87,273,
2025,2,26,16,58,15,1100,100,1,452,0,3,560,904,246,184,
2025,2,26,16,58,16,1100,100,1,452,0,3,559,945,246,273,
2025,2,26,16,58,17,1100,100,1,452,0,3,558,962,263,198,
2025,2,26,16,58,18,1100,75,0,452,0,3,557,943,203,244,
2025,2,26,16,58,19,1090,75,0,452,0,3,556,955,248,264,
2025,2,26,16,58,20,1090,75,0,452,0,3,556,946,223,252,
2025,2,26,16,58,21,1080,75,0,452,0,3,556,932,226,265,
2025,2,26,16,58,22,1070,50,0,452,0,3,556,922,240,292,
2025,2,26,16,58,23,1070,75,0,452,0,3,556,925,248,301,
2025,2,26,16,58,24,1060,100,0,452,0,3,556,920,278,294,
2025,2,26,16,58,25,1050,100,0,452,0,3,556,935,247,274,
2025,2,26,16,58,26,1040,100,0,452,0,3,556,956,199,281,
2025,2,26,16,58,27,1030,100,0,452,0,3,556,757,535,464,
2025,2,26,16,58,28,1020,75,0,452,0,3,556,901,203,364,
2025,2,26,16,58,29,1010,75,0,452,0,3,556,955,355,261,
2025,2,26,16,58,30,1000,75,1,452,0,3,556,937,266,272,
2025,2,26,16,58,31,990,50,0,452,0,3,556,935,231,246,
2025,2,26,16,58,32,990,50,0,452,0,3,556,936,227,269,
2025,2,26,16,58,33,980,50,0,452,0,3,556,927,274,271,
2025,2,26,16,58,34,970,50,0,452,0,3,556,930,248,273,
2025,2,26,16,58,35,960,75,0,452,0,3,556,945,205,272,
2025,2,26,16,58,36,950,100,0,452,0,3,556,915,210,242,
2025,2,26,16,58,37,950,100,0,452,0,3,556,935,281,299,
2025,2,26,16,58,38,940,75,0,452,0,3,556,938,254,252,
2025,2,26,16,58,39,940,75,0,452,0,3,556,930,221,304,
2025,2,26,16,58,40,940,75,0,452,0,3,556,634,437,470,
2025,2,26,16,58,41,930,75,0,452,0,3,556,836,298,547,
2025,2,26,16,58,42,930,75,0,452,0,3,556,730,288,585,
2025,2,26,16,58,43,930,100,1,452,0,3,556,713,353,700,
2025,2,26,16,58,44,920,100,1,452,0,3,556,773,454,651,
2025,2,26,16,58,45,920,100,1,452,0,3,556,661,317,622,
2025,2,26,16,58,46,920,100,1,452,0,3,556,662,428,843,
2025,2,26,16,58,47,910,100,1,452,0,3,556,584,447,613,
2025,2,26,16,58,48,910,100,1,452,0,3,556,665,671,563,
2025,2,26,16,58,49,910,100,1,452,0,3,556,23,466,89,
2025,2,26,16,58,50,900,100,2,452,0,3,556,102,629,152,
2025,2,26,16,58,51,900,100,2,454,0,3,556,138,476,40,
2025,2,26,16,58,52,900,100,1,455,0,3,556,145,409,515,
2025,2,26,16,58,53,910,100,1,455,0,3,556,-231,989,364,
2025,2,26,16,58,54,920,100,1,455,0,3,556,0,299,240,
2025,2,26,16,58,55,920,100,3,455,1,3,556,-124,1181,155,
2025,2,26,16,58,56,930,75,3,455,3,3,556,267,170,144,
2025,2,26,16,58,57,950,75,3,455,5,3,556,-364,902,234,
2025,2,26,16,58,58,960,75,3,455,8,3,556,21,415,309,
2025,2,26,16,58,59,970,50,3,455,10,3,556,-98,892,214,
2025,2,26,16,59,0,980,50,3,455,13,3,556,216,357,254,
2025,2,26,16,59,1,1000,50,3,455,15,3,556,-212,552,237,
2025,2,26,16,59,2,1020,50,3,455,18,3,556,-92,704,298,
2025,2,26,16,59,3,1030,50,3,455,20,3,556,-148,1070,157,
2025,2,26,16,59,4,1050,50,3,455,23,3,556,249,548,323,
2025,2,26,16,59,5,1080,25,3,455,25,3,556,-191,711,238,
2025,2,26,16,59,6,1120,0,3,455,28,3,556,-102,414,251,
2025,2,26,16,59,7,1150,0,3,455,30,3,556,-169,1269,153,
2025,2,26,16,59,8,1170,0,3,455,33,3,556,448,22,40,
2025,2,26,16,59,9,1180,0,3,455,35,3,556,-352,854,310,
2025,2,26,16,59,10,1200,0,3,455,37,3,556,-163,233,199,
2025,2,26,16,59,11,1210,0,3,455,40,3,556,-285,1610,305,
2025,2,26,16,59,12,1220,0,3,455,42,3,556,139,-71,-9,
2025,2,26,16,59,13,1230,0,3,455,45,3,556,-61,1904,615,
2025,2,26,16,59,14,1240,0,3,455,47,3,556,-101,158,98,
2025,2,26,16,59,15,1250,0,3,455,50,3,556,-132,2183,366,
2025,2,26,16,59,16,1260,0,3,455,52,3,556,193,-5,48,
2025,2,26,16,59,17,1270,0,3,455,55,3,556,57,2289,411,
2025,2,26,16,59,18,1270,0,3,455,57,3,556,-125,237,155,
2025,2,26,16,59,19,1280,0,3,455,60,3,556,-51,1843,423,
2025,2,26,16,59,20,1290,0,3,455,62,3,556,193,0,77,
2025,2,26,16,59,21,1300,0,3,455,65,3,556,174,2487,670,
2025,2,26,16,59,22,1310,0,3,455,67,3,556,-154,236,143,
2025,2,26,16,59,23,1320,0,3,455,70,3,556,-627,1737,1022,
2025,2,26,16,59,24,1340,0,3,455,72,3,556,15,371,152,
2025,2,26,16,59,25,1350,0,3,455,75,3,556,156,1308,708,
2025,2,26,16,59,26,1360,0,3,455,77,3,556,-84,394,284,
2025,2,26,16,59,27,1370,0,3,455,80,3,556,-260,869,460,
2025,2,26,16,59,28,1390,0,3,455,82,3,556,-158,366,353,
2025,2,26,16,59,29,1400,0,3,455,85,3,556,427,293,147,
2025,2,26,16,59,30,1410,0,3,455,87,3,556,-232,855,437,
2025,2,26,16,59,31,1420,25,3,455,90,3,556,-155,202,229,
2025,2,26,16,59,32,1420,25,3,455,92,3,556,-249,1558,306,
2025,2,26,16,59,33,1420,25,3,455,94,3,556,242,-175,-37,
2025,2,26,16,59,34,1430,25,3,455,97,3,556,-200,1579,615,
2025,2,26,16,59,35,1430,25,3,455,99,3,556,-111,97,141,
2025,2,26,16,59,36,1430,25,3,455,102,3,556,-246,1606,241,
2025,2,26,16,59,37,1430,25,3,455,104,3,556,208,-134,-58,
2025,2,26,16,59,38,1430,25,3,455,107,3,556,-98,1655,436,
2025,2,26,16,59,39,1430,25,3,455,109,3,556,-110,159,201,
2025,2,26,16,59,40,1420,25,3,455,112,3,556,-198,1323,335,
2025,2,26,16,59,41,1420,25,3,455,114,3,556,242,62,27,
2025,2,26,16,59,42,1410,25,3,455,117,3,556,74,1934,480,
2025,2,26,16,59,43,1420,25,3,455,119,3,556,-103,145,256,
2025,2,26,16,59,44,1420,50,3,455,122,3,556,-221,1746,498,
2025,2,26,16,59,45,1430,25,3,455,124,3,556,413,0,80,
2025,2,26,16,59,46,1440,25,3,455,127,3,556,-236,1824,518,
2025,2,26,16,59,47,1450,25,3,455,129,3,556,-69,-34,246,
2025,2,26,16,59,48,1460,25,3,455,132,3,556,-256,1872,444,
2025,2,26,16,59,49,1460,25,3,455,134,3,556,188,-155,-73,
2025,2,26,16,59,50,1470,25,3,455,137,3,556,31,1983,620,
2025,2,26,16,59,51,1480,50,3,455,139,3,556,-141,244,255,
2025,2,26,16,59,52,1490,50,3,455,142,3,556,-186,1982,495,
2025,2,26,16,59,53,1490,50,3,455,144,3,556,280,122,108,
2025,2,26,16,59,53,1500,50,3,455,147,3,556,280,122,108,
2025,2,26,16,59,54,1500,50,3,455,149,3,556,-159,349,225,
2025,2,26,16,59,55,1500,50,3,455,152,3,556,-60,2382,406,
2025,2,26,16,59,56,1500,50,3,455,154,3,556,49,239,58,
2025,2,26,16,59,57,1500,50,3,455,157,3,556,303,2155,395,
2025,2,26,16,59,58,1500,50,3,455,159,3,556,-220,398,183,
2025,2,26,16,59,59,1490,50,3,455,162,3,556,-496,1743,751,
2025,2,26,17,0,0,1490,50,3,455,164,3,556,44,254,142,
2025,2,26,17,0,1,1490,75,3,455,167,3,556,-198,1412,672,
2025,2,26,17,0,2,1490,75,3,455,169,3,556,-371,291,182,
2025,2,26,17,0,3,1490,75,3,455,172,3,556,-270,1203,441,
2025,2,26,17,0,4,1490,75,3,455,174,3,556,-37,604,258,
2025,2,26,17,0,5,1490,75,3,455,177,3,556,195,985,557,
2025,2,26,17,0,6,1490,75,3,455,179,3,556,-119,547,374,
2025,2,26,17,0,7,1490,75,3,455,182,3,556,-194,982,490,
2025,2,26,17,0,8,1500,75,3,455,184,3,556,-89,754,309,
2025,2,26,17,0,9,1500,75,3,455,187,3,556,173,779,561,
2025,2,26,17,0,10,1500,100,3,455,189,3,556,-179,678,438,
2025,2,26,17,0,11,1500,100,3,455,192,3,556,-190,352,270,
2025,2,26,17,0,12,1500,100,3,455,194,3,556,-221,1210,349,
2025,2,26,17,0,13,1510,100,3,455,197,3,556,378,406,317,
2025,2,26,17,0,14,1510,100,3,455,199,3,556,-61,1229,448,
2025,2,26,17,0,15,1510,100,3,455,202,3,556,-157,214,306,
2025,2,26,17,0,16,1510,100,3,455,204,3,556,-304,1476,366,
2025,2,26,17,0,17,1520,100,3,455,206,3,556,268,122,78,
2025,2,26,17,0,18,1520,100,3,455,209,3,556,-218,1797,663,
2025,2,26,17,0,19,1520,100,3,455,211,3,556,-83,185,256,
2025,2,26,17,0,20,1520,100,3,455,214,3,556,-279,1663,554,
2025,2,26,17,0,21,1520,100,3,455,216,3,556,221,8,61,
2025,2,26,17,0,22,1510,100,3,455,219,3,556,398,2515,608,
2025,2,26,17,0,23,1510,100,3,455,221,3,556,-212,162,254,
2025,2,26,17,0,24,1500,100,3,455,224,3,556,-177,2379,781,
2025,2,26,17,0,25,1500,100,3,455,226,3,556,117,352,153,
2025,2,26,17,0,26,1500,75,3,455,229,3,556,-127,1734,972,
2025,2,26,17,0,27,1500,75,3,455,231,3,556,-158,152,146,
2025,2,26,17,0,28,1500,100,3,455,234,3,556,-318,1581,893,
2025,2,26,17,0,29,1500,100,3,455,236,3,556,-67,691,270,
2025,2,26,17,0,30,1500,100,3,455,239,3,556,510,572,402,
2025,2,26,17,0,31,1500,100,3,455,241,3,556,-167,988,412,
2025,2,26,17,0,32,1510,75,3,455,244,3,556,-134,366,407,
2025,2,26,17,0,33,1520,75,3,455,246,3,556,-239,1047,275,
2025,2,26,17,0,34,1530,75,3,455,249,3,556,420,478,236,
2025,2,26,17,0,35,1530,75,3,455,251,3,556,-213,1359,322,
2025,2,26,17,0,36,1540,75,3,455,254,3,556,-173,59,187,
2025,2,26,17,0,37,1550,75,3,455,256,3,556,-384,1627,462,
2025,2,26,17,0,38,1550,75,3,455,258,3,556,244,119,77,
2025,2,26,17,0,39,1560,75,3,455,261,3,556,183,2043,342,
2025,2,26,17,0,40,1560,75,3,455,263,3,556,-255,-13,40,
2025,2,26,17,0,41,1570,75,3,455,266,3,556,-557,2712,854,
2025,2,26,17,0,42,1580,75,3,455,268,3,556,-51,642,117,
2025,2,26,17,0,43,1580,100,3,455,271,3,556,244,1967,378,
2025,2,26,17,0,44,1580,100,3,455,273,3,556,-235,201,238,
2025,2,26,17,0,45,1590,100,3,455,276,3,556,-153,2226,352,
2025,2,26,17,0,46,1590,100,3,455,278,3,556,270,216,37,
2025,2,26,17,0,47,1590,100,3,455,281,3,556,307,2107,322,
2025,2,26,17,0,48,1590,100,3,455,283,3,556,-117,154,149,
2025,2,26,17,0,49,1600,100,3,455,286,3,556,-300,1676,520,
2025,2,26,17,0,50,1610,100,3,455,288,3,556,244,50,229,
2025,2,26,17,0,51,1610,100,3,455,291,3,556,-273,905,407,
2025,2,26,17,0,52,1620,100,3,455,293,3,556,-147,992,665,
2025,2,26,17,0,53,1630,100,3,455,296,3,556,193,243,217,
2025,2,26,17,0,54,1630,100,3,455,299,3,556,473,1976,344,
2025,2,26,17,0,55,1630,100,3,455,301,3,556,-174,179,152,
2025,2,26,17,0,56,1640,100,3,455,304,3,556,-143,809,200,
2025,2,26,17,0,57,1640,100,3,455,306,3,556,470,1257,447,
2025,2,26,17,0,58,1650,100,3,455,309,3,556,-84,215,238,
2025,2,26,17,0,59,1650,100,3,455,312,3,556,-341,1966,259,
2025,2,26,17,1,0,1650,100,3,455,314,3,556,308,-59,68,
2025,2,26,17,1,1,1660,100,3,455,317,3,556,-190,1072,234,
2025,2,26,17,1,2,1660,100,3,455,319,3,556,-112,1376,437,
2025,2,26,17,1,3,1660,100,3,455,322,3,556,198,54,46,
2025,2,26,17,1,4,1660,100,3,455,325,3,556,262,1892,355,
2025,2,26,17,1,5,1660,100,3,455,327,3,556,-103,98,164,
2025,2,26,17,1,6,1650,100,3,455,330,3,556,-223,1472,244,
2025,2,26,17,1,7,1650,100,3,455,332,3,556,520,1017,356,
2025,2,26,17,1,8,1650,100,3,455,335,3,556,-306,330,279,
2025,2,26,17,1,9,1650,100,3,455,338,3,556,-242,2022,523,
2025,2,26,17,1,10,1650,100,3,455,340,3,556,373,-48,83,
2025,2,26,17,1,11,1650,100,3,455,343,3,556,-120,1701,508,
2025,2,26,17,1,12,1650,100,3,455,345,3,556,-64,658,406,
2025,2,26,17,1,13,1650,100,3,455,348,3,556,-35,471,169,
2025,2,26,17,1,14,1650,100,3,455,351,3,556,100,1582,630,
2025,2,26,17,1,15,1660,100,3,455,353,3,556,-50,159,203,
2025,2,26,17,1,16,1660,100,3,455,356,3,556,-311,1722,281,
2025,2,26,17,1,17,1660,100,3,455,358,3,556,165,-19,121,
2025,2,26,17,1,18,1670,100,3,455,361,3,556,-23,899,494,
2025,2,26,17,1,19,1670,100,3,455,363,3,556,-58,954,518,
2025,2,26,17,1,20,1680,100,3,455,366,3,556,93,655,233,
2025,2,26,17,1,21,1680,100,3,455,369,3,556,382,2031,655,
2025,2,26,17,1,22,1690,100,3,455,371,3,556,-109,209,237,
2025,2,26,17,1,23,1690,100,3,455,374,3,556,-164,1666,486,
2025,2,26,17,1,24,1700,100,3,455,376,3,556,388,318,365,
2025,2,26,17,1,25,1700,100,3,455,379,3,556,-147,956,537,
2025,2,26,17,1,26,1700,100,3,455,381,3,556,-77,941,632,
2025,2,26,17,1,27,1700,100,3,455,384,3,556,125,212,156,
2025,2,26,17,1,28,1700,100,3,455,387,3,556,386,2073,767,
2025,2,26,17,1,29,1700,100,3,455,389,3,556,-53,126,211,
2025,2,26,17,1,30,1700,100,3,455,392,3,556,-232,1509,601,
2025,2,26,17,1,31,1690,100,3,455,394,3,556,350,290,333,
2025,2,26,17,1,32,1690,100,3,455,397,3,556,-640,536,399,
2025,2,26,17,1,33,1680,100,3,455,400,3,556,-111,702,538,
2025,2,26,17,1,34,1680,100,3,455,402,3,556,-59,549,234,
2025,2,26,17,1,35,1670,100,3,455,405,3,556,313,1481,557,
2025,2,26,17,1,36,1670,100,3,455,407,3,556,-211,274,271,
2025,2,26,17,1,37,1670,100,3,455,410,3,556,33,2191,350,
2025,2,26,17,1,38,1670,100,3,455,412,3,556,381,75,16,
2025,2,26,17,1,39,1670,100,3,455,415,3,556,-52,1552,580,
2025,2,26,17,1,40,1670,100,3,455,417,3,556,-32,190,358,
2025,2,26,17,1,41,1670,100,3,455,420,3,556,-274,909,238,
2025,2,26,17,1,42,1670,100,3,455,422,3,556,328,1650,533,
2025,2,26,17,1,43,1670,100,3,455,425,3,556,-158,183,231,
2025,2,26,17,1,44,1670,100,3,455,428,3,556,-195,1786,366,
2025,2,26,17,1,45,1680,100,3,455,430,3,556,205,3,-21,
2025,2,26,17,1,46,1680,100,3,455,433,3,556,-36,1327,469,
2025,2,26,17,1,47,1690,100,3,455,435,3,556,0,532,413,
2025,2,26,17,1,48,1690,100,3,455,438,3,556,139,855,215,
2025,2,26,17,1,49,1690,100,3,455,441,3,556,237,1559,545,
2025,2,26,17,1,50,1690,100,3,455,443,3,556,17,317,282,
2025,2,26,17,1,51,1690,100,3,455,446,3,556,291,2480,165,
2025,2,26,17,1,52,1700,100,3,455,448,3,556,402,17,76,
2025,2,26,17,1,53,1700,100,3,455,451,3,556,68,1632,474,
2025,2,26,17,1,54,1700,100,3,455,453,3,556,-87,444,332,
2025,2,26,17,1,55,1700,100,3,455,456,3,556,-125,876,223,
2025,2,26,17,1,56,1700,100,3,455,459,3,556,654,905,382,
2025,2,26,17,1,57,1700,100,3,455,461,3,556,-193,334,320,
2025,2,26,17,1,58,1700,100,3,455,464,3,556,643,2846,309,
2025,2,26,17,1,59,1700,100,3,455,466,3,556,478,455,104,
2025,2,26,17,2,0,1700,100,3,455,469,3,556,26,1161,265,
2025,2,26,17,2,1,1700,100,3,455,471,3,556,38,545,297,
2025,2,26,17,2,2,1700,100,3,455,474,3,556,-42,842,324,
2025,2,26,17,2,3,1700,100,3,455,477,3,556,291,1447,514,
2025,2,26,17,2,4,1700,100,3,455,479,3,556,-76,439,292,
2025,2,26,17,2,5,1700,100,3,455,482,3,556,448,2074,50,
2025,2,26,17,2,6,1700,100,3,455,484,3,556,310,-23,3,
2025,2,26,17,2,7,1700,100,3,455,487,3,556,-18,1397,299,
2025,2,26,17,2,8,1700,100,3,455,489,3,556,-86,265,257,
2025,2,26,17,2,9,1700,100,3,455,492,3,556,-369,1362,64,
2025,2,26,17,2,10,1700,100,3,455,495,3,556,562,315,335,
2025,2,26,17,2,11,1700,100,3,455,497,3,556,21,913,443,
2025,2,26,17,2,12,1700,100,3,455,500,3,556,122,1176,913,
2025,2,26,17,2,13,1700,100,3,455,502,3,556,147,128,110,
2025,2,26,17,2,14,1700,100,3,455,505,3,556,347,2158,324,
2025,2,26,17,2,15,1710,100,3,455,507,3,556,-58,306,195,
2025,2,26,17,2,16,1710,100,3,455,510,3,556,-136,1745,370,
2025,2,26,17,2,17,1710,100,3,455,512,3,556,435,197,124,
2025,2,26,17,2,18,1710,100,3,455,515,3,556,-161,1581,520,
2025,2,26,17,2,19,1710,100,3,455,517,3,556,-92,274,300,
2025,2,26,17,2,20,1710,100,3,455,520,3,556,-135,1001,279,
2025,2,26,17,2,21,1710,100,3,455,523,3,556,569,962,549,
2025,2,26,17,2,22,1710,100,3,455,525,3,556,-125,338,397,
2025,2,26,17,2,23,1710,100,3,455,528,3,556,-22,2155,783,
2025,2,26,17,2,24,1710,100,3,455,530,3,556,294,-37,32,
2025,2,26,17,2,25,1710,100,3,455,533,3,556,18,1308,408,
2025,2,26,17,2,26,1700,100,3,455,535,3,556,-98,429,284,
2025,2,26,17,2,27,1700,100,3,455,538,3,556,-159,677,185,
2025,2,26,17,2,28,1700,100,3,455,541,3,556,236,1359,492,
2025,2,26,17,2,29,1700,100,3,455,543,3,556,-160,299,289,
2025,2,26,17,2,30,1710,100,3,455,546,3,556,130,1857,346,
2025,2,26,17,2,31,1710,100,3,455,548,3,556,158,71,156,
2025,2,26,17,2,32,1710,100,3,455,551,3,556,-5,1413,447,
2025,2,26,17,2,33,1710,100,3,455,553,3,556,-27,391,380,
2025,2,26,17,2,34,1710,100,3,455,556,3,556,-152,737,345,
2025,2,26,17,2,35,1720,100,3,455,559,3,556,326,1144,667,
2025,2,26,17,2,36,1720,100,3,455,561,3,556,-32,333,195,
2025,2,26,17,2,37,1710,100,3,455,564,3,556,41,1555,292,
2025,2,26,17,2,38,1710,100,3,455,566,3,556,296,224,255,
2025,2,26,17,2,39,1710,100,3,455,569,3,556,-241,1307,624,
2025,2,26,17,2,40,1710,100,3,455,571,3,556,-75,772,529,
2025,2,26,17,2,41,1720,100,3,455,574,3,556,-84,596,321,
2025,2,26,17,2,42,1720,100,3,455,577,3,556,528,1427,1134,
2025,2,26,17,2,43,1710,100,3,455,579,3,556,-153,179,293,
2025,2,26,17,2,44,1710,100,3,455,582,3,556,218,1704,453,
2025,2,26,17,2,45,1710,100,3,455,584,3,556,231,311,221,
2025,2,26,17,2,46,1710,100,3,455,587,3,556,511,1072,297,
2025,2,26,17,2,47,1710,100,3,455,589,3,556,343,1186,520,
2025,2,26,17,2,48,1710,100,2,455,592,3,556,-21,453,258,
2025,2,26,17,2,49,1710,100,2,458,592,3,556,43,892,285,
2025,2,26,17,2,50,1710,100,2,461,592,3,556,-17,910,427,
2025,2,26,17,2,51,1710,100,2,463,592,3,556,306,888,456,
2025,2,26,17,2,52,1710,100,2,466,592,3,556,15,958,418,
2025,2,26,17,2,53,1710,100,2,469,592,3,556,88,902,398,
2025,2,26,17,2,54,1710,100,2,472,592,3,556,587,587,587,
2025,2,26,17,2,55,1700,100,2,475,592,3,556,532,630,511,
2025,2,26,17,2,56,1700,100,2,478,592,3,556,617,303,543,
2025,2,26,17,2,57,1700,100,2,480,592,3,556,550,493,593,
2025,2,26,17,2,58,1700,100,2,482,592,3,556,497,593,699,
2025,2,26,17,2,59,1700,100,2,483,592,3,556,666,396,498,
2025,2,26,17,3,0,1700,100,1,485,592,3,556,574,562,749,
2025,2,26,17,3,1,1700,100,1,485,592,3,556,562,304,655,
2025,2,26,17,3,2,1700,100,1,485,592,3,556,584,546,571,
2025,2,26,17,3,3,1700,100,1,485,592,3,556,536,317,640,
2025,2,26,17,3,4,1700,100,2,486,592,3,556,1059,579,481,
2025,2,26,17,3,5,1700,100,2,488,592,3,556,847,215,110,
2025,2,26,17,3,6,1690,100,2,490,592,3,556,722,260,320,
2025,2,26,17,3,7,1680,100,2,492,592,3,556,425,207,193,
2025,2,26,17,3,8,1680,100,2,493,592,3,556,590,456,576,
2025,2,26,17,3,9,1680,100,2,495,592,3,556,-254,1165,374,
2025,2,26,17,3,10,1680,100,2,497,592,3,556,-588,764,415,
2025,2,26,17,3,11,1680,100,2,498,592,3,556,-453,234,426,
2025,2,26,17,3,12,1670,100,2,500,592,3,556,-600,744,-218,
2025,2,26,17,3,13,1670,100,2,501,592,3,556,-34,855,274,
2025,2,26,17,3,14,1660,100,2,503,592,3,556,-170,727,461,
2025,2,26,17,3,15,1650,100,2,504,592,3,556,568,328,581,
2025,2,26,17,3,16,1650,100,2,506,592,3,556,508,563,598,
2025,2,26,17,3,17,1640,100,2,507,592,3,556,412,656,727,
2025,2,26,17,3,18,1640,100,2,509,592,3,556,491,513,572,
2025,2,26,17,3,19,1630,100,2,510,592,3,556,602,475,651,
2025,2,26,17,3,20,1630,100,2,512,592,3,556,632,532,841,
2025,2,26,17,3,21,1630,100,2,514,592,3,556,497,676,682,
2025,2,26,17,3,22,1630,100,2,516,592,3,556,429,814,812,
2025,2,26,17,3,23,1630,100,2,519,592,3,556,560,353,773,
2025,2,26,17,3,24,1620,100,2,521,592,3,556,593,489,492,
2025,2,26,17,3,25,1620,100,2,523,592,3,556,575,431,603,
2025,2,26,17,3,26,1620,100,1,524,592,3,556,536,488,711,
2025,2,26,17,3,27,1610,100,1,524,592,3,556,503,679,794,
2025,2,26,17,3,28,1610,100,1,524,592,3,556,317,386,797,
2025,2,26,17,3,29,1600,100,2,525,592,3,556,514,837,590,
2025,2,26,17,3,30,1600,100,2,527,592,3,556,377,648,557,
2025,2,26,17,3,31,1590,100,2,529,592,3,556,570,603,475,
2025,2,26,17,3,32,1580,100,1,530,592,3,556,628,26,322,
2025,2,26,17,3,33,1580,100,2,531,592,3,556,335,708,486,
2025,2,26,17,3,34,1570,100,2,533,592,3,556,856,704,488,
2025,2,26,17,3,35,1570,100,2,536,592,3,556,721,563,493,
2025,2,26,17,3,36,1570,100,2,538,592,3,556,759,262,476,
2025,2,26,17,3,37,1570,100,1,538,592,3,556,679,375,733,
2025,2,26,17,3,38,1560,100,1,538,592,3,556,597,346,552,
2025,2,26,17,3,39,1560,100,1,538,592,3,556,488,628,650,
2025,2,26,17,3,40,1550,100,1,538,592,3,556,551,524,751,
2025,2,26,17,3,41,1550,100,1,538,592,3,556,950,928,1034,
2025,2,26,17,3,42,1550,100,1,538,592,3,556,576,473,887,
2025,2,26,17,3,43,1540,100,1,538,592,3,556,662,229,485,
2025,2,26,17,3,44,1540,100,1,538,592,3,556,549,564,587,
2025,2,26,17,3,45,1530,100,1,538,592,3,556,568,555,516,
2025,2,26,17,3,46,1530,100,1,538,592,3,556,537,472,641,
2025,2,26,17,3,47,1520,75,0,538,592,3,556,429,640,664,
2025,2,26,17,3,48,1520,75,0,538,592,3,556,461,650,797,
2025,2,26,17,3,49,1510,75,0,538,592,3,556,555,772,1261,
2025,2,26,17,3,50,1500,75,0,538,592,3,556,464,782,563,
2025,2,26,17,3,51,1500,75,0,538,592,3,556,532,518,698,
2025,2,26,17,3,52,1490,75,0,538,592,3,556,426,749,892,
2025,2,26,17,3,53,1490,75,0,538,592,3,556,515,414,917,
2025,2,26,17,3,53,1480,75,0,538,592,3,556,515,414,917,
2025,2,26,17,3,54,1480,75,0,538,592,3,556,499,757,859,
2025,2,26,17,3,55,1470,100,4,538,592,3,556,641,506,517,
2025,2,26,17,3,56,1470,100,4,538,592,3,556,543,577,525,
2025,2,26,17,3,57,1470,100,4,538,592,3,556,496,709,662,
2025,2,26,17,3,58,1470,100,4,538,592,3,556,550,234,601,
2025,2,26,17,3,59,1470,100,4,538,592,3,556,637,375,607,
2025,2,26,17,4,0,1470,100,4,538,592,3,556,557,496,634,
2025,2,26,17,4,1,1460,100,4,538,592,3,556,604,523,617,
2025,2,26,17,4,2,1460,100,4,538,592,3,556,590,488,576,
2025,2,26,17,4,3,1460,100,4,538,592,3,556,450,713,643,
2025,2,26,17,4,4,1450,100,4,538,592,3,556,357,490,615,
2025,2,26,17,4,5,1450,100,4,538,592,3,556,529,639,526,
2025,2,26,17,4,6,1440,75,0,538,592,3,556,507,724,829,
2025,2,26,17,4,7,1430,75,0,538,592,3,556,579,515,568,
2025,2,26,17,4,8,1430,100,4,538,592,3,556,547,558,554,
2025,2,26,17,4,9,1420,100,4,538,592,3,556,599,556,637,
2025,2,26,17,4,10,1420,100,4,538,592,3,556,520,419,743,
2025,2,26,17,4,11,1420,100,4,538,592,3,556,478,585,695,
2025,2,26,17,4,12,1410,100,4,538,592,3,556,506,648,35,
2025,2,26,17,4,13,1410,75,0,538,592,3,556,716,430,479,
2025,2,26,17,4,14,1410,75,0,538,592,3,556,544,611,552,
2025,2,26,17,4,15,1400,75,0,538,592,3,556,540,750,542,
2025,2,26,17,4,16,1400,75,0,538,592,3,556,16,615,177,
2025,2,26,17,4,17,1400,75,0,538,592,3,556,575,779,714,
2025,2,26,17,4,18,1400,75,0,538,592,3,556,661,425,555,
2025,2,26,17,4,19,1390,75,0,538,592,3,556,686,616,772,
2025,2,26,17,4,20,1390,75,0,538,592,3,556,274,465,58,
2025,2,26,17,4,21,1380,75,0,538,592,3,556,740,530,696,
2025,2,26,17,4,22,1380,75,0,538,592,3,556,691,312,533,
2025,2,26,17,4,23,1370,75,0,538,592,3,556,676,438,507,
2025,2,26,17,4,24,1370,75,0,538,592,3,556,678,362,502,
2025,2,26,17,4,25,1370,75,0,538,592,3,556,395,599,437,
2025,2,26,17,4,26,1370,75,0,538,592,3,556,424,719,558,
2025,2,26,17,4,27,1360,75,0,538,592,3,556,612,474,474,
2025,2,26,17,4,28,1360,75,0,538,592,3,556,569,561,569,
2025,2,26,17,4,29,1360,75,0,538,592,3,556,629,422,480,
2025,2,26,17,4,30,1360,75,0,538,592,3,556,854,667,891,
2025,2,26,17,4,31,1360,75,0,538,592,3,556,677,304,636,
2025,2,26,17,4,32,1360,75,0,538,592,3,556,488,655,539,
2025,2,26,17,4,33,1350,75,0,538,592,3,556,469,664,565,
2025,2,26,17,4,34,1350,75,0,538,592,3,556,492,784,526,
2025,2,26,17,4,35,1350,75,0,538,592,3,556,598,461,535,
2025,2,26,17,4,36,1350,50,0,538,592,3,556,575,366,705,
2025,2,26,17,4,37,1350,50,0,538,592,3,556,591,534,650,
2025,2,26,17,4,38,1350,50,0,538,592,3,556,655,493,453,
2025,2,26,17,4,39,1350,75,0,538,592,3,556,669,350,447,
2025,2,26,17,4,40,1350,75,0,538,592,3,556,633,493,206,
2025,2,26,17,4,41,1350,75,0,538,592,3,556,761,427,627,
2025,2,26,17,4,42,1340,75,0,538,592,3,556,666,558,523,
2025,2,26,17,4,43,1340,75,0,538,592,3,556,894,416,571,
2025,2,26,17,4,44,1340,100,4,538,592,3,556,624,647,678,
2025,2,26,17,4,45,1340,75,0,538,592,3,556,673,485,767,
2025,2,26,17,4,46,1340,75,0,538,592,3,556,599,613,571,
2025,2,26,17,4,47,1330,75,0,538,592,3,556,646,539,631,
2025,2,26,17,4,48,1330,75,0,538,592,3,556,350,499,683,
